"success","timeout","failed_images","failed_audio","failed_video","trial_type","trial_index","time_elapsed","internal_node_id","run_id","condition","recorded_at","source_code_version","ip","user_agent","device","browser","browser_version","platform","platform_version","referer","accept_language","PROLIFIC_PID","STUDY_ID","SESSION_ID","view_history","rt","stimulus","response","phase","question_order"
"true","false","[]","[]","[]","preload","0","8311","0.0-0.0","19","1","2025-01-22 20:08:26","6073afb29c8d06c5d8f22ae9f1371ff8","89.34.228.113","Mozilla/5.0 (Windows NT 10.0; WOW64) AppleWebKit/537.36 (KHTML, like Gecko) Chrome/129.0.0.0 Safari/537.36","WebKit","Chrome","129.0.0.0","Windows","10.0","https://app.prolific.com/","en,en-US;q=0.9;q=0.9","678cde0c5b0dbb112da304ea","679147d2997803490f072fae","6791501762e86bf5e5a48d30","","","","","",""
"","","","","","instructions","1","15874","0.0-1.0","19","1","2025-01-22 20:08:26","6073afb29c8d06c5d8f22ae9f1371ff8","89.34.228.113","Mozilla/5.0 (Windows NT 10.0; WOW64) AppleWebKit/537.36 (KHTML, like Gecko) Chrome/129.0.0.0 Safari/537.36","WebKit","Chrome","129.0.0.0","Windows","10.0","https://app.prolific.com/","en,en-US;q=0.9;q=0.9","678cde0c5b0dbb112da304ea","679147d2997803490f072fae","6791501762e86bf5e5a48d30","[{""page_index"":0,""viewing_time"":7558}]","7559","","","",""
"","","","","","html-keyboard-response","2","16388","0.0-2.0","19","1","2025-01-22 20:08:26","6073afb29c8d06c5d8f22ae9f1371ff8","89.34.228.113","Mozilla/5.0 (Windows NT 10.0; WOW64) AppleWebKit/537.36 (KHTML, like Gecko) Chrome/129.0.0.0 Safari/537.36","WebKit","Chrome","129.0.0.0","Windows","10.0","https://app.prolific.com/","en,en-US;q=0.9;q=0.9","678cde0c5b0dbb112da304ea","679147d2997803490f072fae","6791501762e86bf5e5a48d30","","null","<p> + <p/>","null","",""
"","","","","","instructions","3","42518","0.0-3.0","19","1","2025-01-22 20:08:26","6073afb29c8d06c5d8f22ae9f1371ff8","89.34.228.113","Mozilla/5.0 (Windows NT 10.0; WOW64) AppleWebKit/537.36 (KHTML, like Gecko) Chrome/129.0.0.0 Safari/537.36","WebKit","Chrome","129.0.0.0","Windows","10.0","https://app.prolific.com/","en,en-US;q=0.9;q=0.9","678cde0c5b0dbb112da304ea","679147d2997803490f072fae","6791501762e86bf5e5a48d30","[{""page_index"":0,""viewing_time"":8267},{""page_index"":1,""viewing_time"":12333},{""page_index"":2,""viewing_time"":3141},{""page_index"":3,""viewing_time"":995},{""page_index"":4,""viewing_time"":1392}]","26128","","","",""
"","","","","","html-button-response","4","52789","0.0-4.0-0.0-0.0","19","1","2025-01-22 20:08:26","6073afb29c8d06c5d8f22ae9f1371ff8","89.34.228.113","Mozilla/5.0 (Windows NT 10.0; WOW64) AppleWebKit/537.36 (KHTML, like Gecko) Chrome/129.0.0.0 Safari/537.36","WebKit","Chrome","129.0.0.0","Windows","10.0","https://app.prolific.com/","en,en-US;q=0.9;q=0.9","678cde0c5b0dbb112da304ea","679147d2997803490f072fae","6791501762e86bf5e5a48d30","","10266","","0","Intro Trial",""
"","","","","","html-button-response","5","57610","0.0-4.1-0.1-0.1","19","1","2025-01-22 20:08:26","6073afb29c8d06c5d8f22ae9f1371ff8","89.34.228.113","Mozilla/5.0 (Windows NT 10.0; WOW64) AppleWebKit/537.36 (KHTML, like Gecko) Chrome/129.0.0.0 Safari/537.36","WebKit","Chrome","129.0.0.0","Windows","10.0","https://app.prolific.com/","en,en-US;q=0.9;q=0.9","678cde0c5b0dbb112da304ea","679147d2997803490f072fae","6791501762e86bf5e5a48d30","","4818","","2","Intro Trial",""
"","","","","","html-button-response","6","61113","0.0-4.2-0.2-0.2","19","1","2025-01-22 20:08:26","6073afb29c8d06c5d8f22ae9f1371ff8","89.34.228.113","Mozilla/5.0 (Windows NT 10.0; WOW64) AppleWebKit/537.36 (KHTML, like Gecko) Chrome/129.0.0.0 Safari/537.36","WebKit","Chrome","129.0.0.0","Windows","10.0","https://app.prolific.com/","en,en-US;q=0.9;q=0.9","678cde0c5b0dbb112da304ea","679147d2997803490f072fae","6791501762e86bf5e5a48d30","","3500","","0","Intro Trial",""
"","","","","","html-button-response","7","62331","0.0-4.3-0.3-0.3","19","1","2025-01-22 20:08:26","6073afb29c8d06c5d8f22ae9f1371ff8","89.34.228.113","Mozilla/5.0 (Windows NT 10.0; WOW64) AppleWebKit/537.36 (KHTML, like Gecko) Chrome/129.0.0.0 Safari/537.36","WebKit","Chrome","129.0.0.0","Windows","10.0","https://app.prolific.com/","en,en-US;q=0.9;q=0.9","678cde0c5b0dbb112da304ea","679147d2997803490f072fae","6791501762e86bf5e5a48d30","","1214","","4","Intro Trial",""
"","","","","","html-button-response","8","66213","0.0-4.4-0.4-0.4","19","1","2025-01-22 20:08:26","6073afb29c8d06c5d8f22ae9f1371ff8","89.34.228.113","Mozilla/5.0 (Windows NT 10.0; WOW64) AppleWebKit/537.36 (KHTML, like Gecko) Chrome/129.0.0.0 Safari/537.36","WebKit","Chrome","129.0.0.0","Windows","10.0","https://app.prolific.com/","en,en-US;q=0.9;q=0.9","678cde0c5b0dbb112da304ea","679147d2997803490f072fae","6791501762e86bf5e5a48d30","","3880","","2","Intro Trial",""
"","","","","","html-button-response","9","71028","0.0-4.5-0.5-0.5","19","1","2025-01-22 20:08:26","6073afb29c8d06c5d8f22ae9f1371ff8","89.34.228.113","Mozilla/5.0 (Windows NT 10.0; WOW64) AppleWebKit/537.36 (KHTML, like Gecko) Chrome/129.0.0.0 Safari/537.36","WebKit","Chrome","129.0.0.0","Windows","10.0","https://app.prolific.com/","en,en-US;q=0.9;q=0.9","678cde0c5b0dbb112da304ea","679147d2997803490f072fae","6791501762e86bf5e5a48d30","","4812","","4","Intro Trial",""
"","","","","","html-button-response","10","72658","0.0-4.6-0.6-0.6","19","1","2025-01-22 20:08:26","6073afb29c8d06c5d8f22ae9f1371ff8","89.34.228.113","Mozilla/5.0 (Windows NT 10.0; WOW64) AppleWebKit/537.36 (KHTML, like Gecko) Chrome/129.0.0.0 Safari/537.36","WebKit","Chrome","129.0.0.0","Windows","10.0","https://app.prolific.com/","en,en-US;q=0.9;q=0.9","678cde0c5b0dbb112da304ea","679147d2997803490f072fae","6791501762e86bf5e5a48d30","","1629","","0","Intro Trial",""
"","","","","","html-button-response","11","74024","0.0-4.7-0.7-0.7","19","1","2025-01-22 20:08:26","6073afb29c8d06c5d8f22ae9f1371ff8","89.34.228.113","Mozilla/5.0 (Windows NT 10.0; WOW64) AppleWebKit/537.36 (KHTML, like Gecko) Chrome/129.0.0.0 Safari/537.36","WebKit","Chrome","129.0.0.0","Windows","10.0","https://app.prolific.com/","en,en-US;q=0.9;q=0.9","678cde0c5b0dbb112da304ea","679147d2997803490f072fae","6791501762e86bf5e5a48d30","","1363","","4","Intro Trial",""
"","","","","","html-button-response","12","84279","0.0-4.8-0.8-0.8","19","1","2025-01-22 20:08:26","6073afb29c8d06c5d8f22ae9f1371ff8","89.34.228.113","Mozilla/5.0 (Windows NT 10.0; WOW64) AppleWebKit/537.36 (KHTML, like Gecko) Chrome/129.0.0.0 Safari/537.36","WebKit","Chrome","129.0.0.0","Windows","10.0","https://app.prolific.com/","en,en-US;q=0.9;q=0.9","678cde0c5b0dbb112da304ea","679147d2997803490f072fae","6791501762e86bf5e5a48d30","","10253","","3","Intro Trial",""
"","","","","","html-button-response","13","85191","0.0-4.9-0.9-0.9","19","1","2025-01-22 20:08:26","6073afb29c8d06c5d8f22ae9f1371ff8","89.34.228.113","Mozilla/5.0 (Windows NT 10.0; WOW64) AppleWebKit/537.36 (KHTML, like Gecko) Chrome/129.0.0.0 Safari/537.36","WebKit","Chrome","129.0.0.0","Windows","10.0","https://app.prolific.com/","en,en-US;q=0.9;q=0.9","678cde0c5b0dbb112da304ea","679147d2997803490f072fae","6791501762e86bf5e5a48d30","","910","","1","Intro Trial",""
"","","","","","html-button-response","14","86192","0.0-4.10-0.10-0.10","19","1","2025-01-22 20:08:26","6073afb29c8d06c5d8f22ae9f1371ff8","89.34.228.113","Mozilla/5.0 (Windows NT 10.0; WOW64) AppleWebKit/537.36 (KHTML, like Gecko) Chrome/129.0.0.0 Safari/537.36","WebKit","Chrome","129.0.0.0","Windows","10.0","https://app.prolific.com/","en,en-US;q=0.9;q=0.9","678cde0c5b0dbb112da304ea","679147d2997803490f072fae","6791501762e86bf5e5a48d30","","999","","2","Intro Trial",""
"","","","","","html-button-response","15","86872","0.0-4.11-0.11-0.11","19","1","2025-01-22 20:08:26","6073afb29c8d06c5d8f22ae9f1371ff8","89.34.228.113","Mozilla/5.0 (Windows NT 10.0; WOW64) AppleWebKit/537.36 (KHTML, like Gecko) Chrome/129.0.0.0 Safari/537.36","WebKit","Chrome","129.0.0.0","Windows","10.0","https://app.prolific.com/","en,en-US;q=0.9;q=0.9","678cde0c5b0dbb112da304ea","679147d2997803490f072fae","6791501762e86bf5e5a48d30","","678","","0","Intro Trial",""
"","","","","","html-button-response","16","88516","0.0-4.12-0.12-0.12","19","1","2025-01-22 20:08:26","6073afb29c8d06c5d8f22ae9f1371ff8","89.34.228.113","Mozilla/5.0 (Windows NT 10.0; WOW64) AppleWebKit/537.36 (KHTML, like Gecko) Chrome/129.0.0.0 Safari/537.36","WebKit","Chrome","129.0.0.0","Windows","10.0","https://app.prolific.com/","en,en-US;q=0.9;q=0.9","678cde0c5b0dbb112da304ea","679147d2997803490f072fae","6791501762e86bf5e5a48d30","","1639","","2","Intro Trial",""
"","","","","","html-button-response","17","89997","0.0-4.13-0.13-0.13","19","1","2025-01-22 20:08:26","6073afb29c8d06c5d8f22ae9f1371ff8","89.34.228.113","Mozilla/5.0 (Windows NT 10.0; WOW64) AppleWebKit/537.36 (KHTML, like Gecko) Chrome/129.0.0.0 Safari/537.36","WebKit","Chrome","129.0.0.0","Windows","10.0","https://app.prolific.com/","en,en-US;q=0.9;q=0.9","678cde0c5b0dbb112da304ea","679147d2997803490f072fae","6791501762e86bf5e5a48d30","","1479","","0","Intro Trial",""
"","","","","","html-button-response","18","91781","0.0-4.14-0.14-0.14","19","1","2025-01-22 20:08:26","6073afb29c8d06c5d8f22ae9f1371ff8","89.34.228.113","Mozilla/5.0 (Windows NT 10.0; WOW64) AppleWebKit/537.36 (KHTML, like Gecko) Chrome/129.0.0.0 Safari/537.36","WebKit","Chrome","129.0.0.0","Windows","10.0","https://app.prolific.com/","en,en-US;q=0.9;q=0.9","678cde0c5b0dbb112da304ea","679147d2997803490f072fae","6791501762e86bf5e5a48d30","","1782","","5","Intro Trial",""
"","","","","","html-keyboard-response","19","103300","0.0-5.0","19","1","2025-01-22 20:08:26","6073afb29c8d06c5d8f22ae9f1371ff8","89.34.228.113","Mozilla/5.0 (Windows NT 10.0; WOW64) AppleWebKit/537.36 (KHTML, like Gecko) Chrome/129.0.0.0 Safari/537.36","WebKit","Chrome","129.0.0.0","Windows","10.0","https://app.prolific.com/","en,en-US;q=0.9;q=0.9","678cde0c5b0dbb112da304ea","679147d2997803490f072fae","6791501762e86bf5e5a48d30","","11517","[""You sorted incorrectly by using the balance 7 times. <br><br> <img src='G_5.jpg' height='90'><img src='G_2.jpg' height='90'><img src='G_3.jpg' height='90'><img src='G_4.jpg' height='90'><img src='G_1.jpg' height='90'><br><br> Your final order is 1,2,3,5,4<br><br><br>Omgne Sort in this game will allow you to sort correctly by using the balance 8 times. Press Enter to learn it!""]"," ","",""
"","","","","","html-keyboard-response","20","104612","0.0-6.0","19","1","2025-01-22 20:08:26","6073afb29c8d06c5d8f22ae9f1371ff8","89.34.228.113","Mozilla/5.0 (Windows NT 10.0; WOW64) AppleWebKit/537.36 (KHTML, like Gecko) Chrome/129.0.0.0 Safari/537.36","WebKit","Chrome","129.0.0.0","Windows","10.0","https://app.prolific.com/","en,en-US;q=0.9;q=0.9","678cde0c5b0dbb112da304ea","679147d2997803490f072fae","6791501762e86bf5e5a48d30","","1311","<p>Welcome to the learning phase! <br><br> You will learn by four examples. The following learning trials will not be used to calculate your performance. <br><br> Press Enter to continue.<p/>"," ","",""
"","","","","","html-keyboard-response","21","105637","0.0-7.0","19","1","2025-01-22 20:08:26","6073afb29c8d06c5d8f22ae9f1371ff8","89.34.228.113","Mozilla/5.0 (Windows NT 10.0; WOW64) AppleWebKit/537.36 (KHTML, like Gecko) Chrome/129.0.0.0 Safari/537.36","WebKit","Chrome","129.0.0.0","Windows","10.0","https://app.prolific.com/","en,en-US;q=0.9;q=0.9","678cde0c5b0dbb112da304ea","679147d2997803490f072fae","6791501762e86bf5e5a48d30","","1024","[""Example 1<br><br>You will watch Omnge Sort in action. Try to identify any patterns in the comparisons made by this method. <br><br>Press Enter to continue.""]"," ","",""
"","","","","","html-keyboard-response","22","106140","0.0-8.0","19","1","2025-01-22 20:08:26","6073afb29c8d06c5d8f22ae9f1371ff8","89.34.228.113","Mozilla/5.0 (Windows NT 10.0; WOW64) AppleWebKit/537.36 (KHTML, like Gecko) Chrome/129.0.0.0 Safari/537.36","WebKit","Chrome","129.0.0.0","Windows","10.0","https://app.prolific.com/","en,en-US;q=0.9;q=0.9","678cde0c5b0dbb112da304ea","679147d2997803490f072fae","6791501762e86bf5e5a48d30","","null","<img id='selected' src='G_1.jpg' height='90'> <img src='G_5.jpg' height='90'> <img src='G_3.jpg' height='90'> <img src='G_9.jpg' height='90'> <img src='G_7.jpg' height='90'>","null","Animation0",""
"","","","","","html-keyboard-response","23","106644","0.0-9.0","19","1","2025-01-22 20:08:26","6073afb29c8d06c5d8f22ae9f1371ff8","89.34.228.113","Mozilla/5.0 (Windows NT 10.0; WOW64) AppleWebKit/537.36 (KHTML, like Gecko) Chrome/129.0.0.0 Safari/537.36","WebKit","Chrome","129.0.0.0","Windows","10.0","https://app.prolific.com/","en,en-US;q=0.9;q=0.9","678cde0c5b0dbb112da304ea","679147d2997803490f072fae","6791501762e86bf5e5a48d30","","null","<img id='selected' src='G_1.jpg' height='90'> <img id='selected' src='G_5.jpg' height='90'> <img src='G_3.jpg' height='90'> <img src='G_9.jpg' height='90'> <img src='G_7.jpg' height='90'>","null","Animation0",""
"","","","","","html-keyboard-response","24","107146","0.0-10.0","19","1","2025-01-22 20:08:26","6073afb29c8d06c5d8f22ae9f1371ff8","89.34.228.113","Mozilla/5.0 (Windows NT 10.0; WOW64) AppleWebKit/537.36 (KHTML, like Gecko) Chrome/129.0.0.0 Safari/537.36","WebKit","Chrome","129.0.0.0","Windows","10.0","https://app.prolific.com/","en,en-US;q=0.9;q=0.9","678cde0c5b0dbb112da304ea","679147d2997803490f072fae","6791501762e86bf5e5a48d30","","null","<img id='swapped' src='G_5.jpg' height='90'> <img id='swapped' src='G_1.jpg' height='90'> <img src='G_3.jpg' height='90'> <img src='G_9.jpg' height='90'> <img src='G_7.jpg' height='90'>","null","Animation0",""
"","","","","","html-keyboard-response","25","107449","0.0-11.0","19","1","2025-01-22 20:08:26","6073afb29c8d06c5d8f22ae9f1371ff8","89.34.228.113","Mozilla/5.0 (Windows NT 10.0; WOW64) AppleWebKit/537.36 (KHTML, like Gecko) Chrome/129.0.0.0 Safari/537.36","WebKit","Chrome","129.0.0.0","Windows","10.0","https://app.prolific.com/","en,en-US;q=0.9;q=0.9","678cde0c5b0dbb112da304ea","679147d2997803490f072fae","6791501762e86bf5e5a48d30","","null","<img  src='G_5.jpg' height='90'> <img  src='G_1.jpg' height='90'> <img src='G_3.jpg' height='90'> <img src='G_9.jpg' height='90'> <img src='G_7.jpg' height='90'>","null","Animation0",""
"","","","","","html-keyboard-response","26","107952","0.0-12.0","19","1","2025-01-22 20:08:26","6073afb29c8d06c5d8f22ae9f1371ff8","89.34.228.113","Mozilla/5.0 (Windows NT 10.0; WOW64) AppleWebKit/537.36 (KHTML, like Gecko) Chrome/129.0.0.0 Safari/537.36","WebKit","Chrome","129.0.0.0","Windows","10.0","https://app.prolific.com/","en,en-US;q=0.9;q=0.9","678cde0c5b0dbb112da304ea","679147d2997803490f072fae","6791501762e86bf5e5a48d30","","null","<img  src='G_5.jpg' height='90'> <img id='selected'  src='G_1.jpg' height='90'> <img src='G_3.jpg' height='90'> <img src='G_9.jpg' height='90'> <img src='G_7.jpg' height='90'>","null","Animation0",""
"","","","","","html-keyboard-response","27","108455","0.0-13.0","19","1","2025-01-22 20:08:26","6073afb29c8d06c5d8f22ae9f1371ff8","89.34.228.113","Mozilla/5.0 (Windows NT 10.0; WOW64) AppleWebKit/537.36 (KHTML, like Gecko) Chrome/129.0.0.0 Safari/537.36","WebKit","Chrome","129.0.0.0","Windows","10.0","https://app.prolific.com/","en,en-US;q=0.9;q=0.9","678cde0c5b0dbb112da304ea","679147d2997803490f072fae","6791501762e86bf5e5a48d30","","null","<img  src='G_5.jpg' height='90'> <img id='selected'  src='G_1.jpg' height='90'> <img id='selected' src='G_3.jpg' height='90'> <img src='G_9.jpg' height='90'> <img src='G_7.jpg' height='90'>","null","Animation0",""
"","","","","","html-keyboard-response","28","108957","0.0-14.0","19","1","2025-01-22 20:08:26","6073afb29c8d06c5d8f22ae9f1371ff8","89.34.228.113","Mozilla/5.0 (Windows NT 10.0; WOW64) AppleWebKit/537.36 (KHTML, like Gecko) Chrome/129.0.0.0 Safari/537.36","WebKit","Chrome","129.0.0.0","Windows","10.0","https://app.prolific.com/","en,en-US;q=0.9;q=0.9","678cde0c5b0dbb112da304ea","679147d2997803490f072fae","6791501762e86bf5e5a48d30","","null","<img  src='G_5.jpg' height='90'> <img id='selected'  src='G_1.jpg' height='90'> <img id='selected' src='G_3.jpg' height='90'> <img src='G_9.jpg' height='90'> <img src='G_7.jpg' height='90'>","null","Animation0",""
"","","","","","html-keyboard-response","29","109262","0.0-15.0","19","1","2025-01-22 20:08:26","6073afb29c8d06c5d8f22ae9f1371ff8","89.34.228.113","Mozilla/5.0 (Windows NT 10.0; WOW64) AppleWebKit/537.36 (KHTML, like Gecko) Chrome/129.0.0.0 Safari/537.36","WebKit","Chrome","129.0.0.0","Windows","10.0","https://app.prolific.com/","en,en-US;q=0.9;q=0.9","678cde0c5b0dbb112da304ea","679147d2997803490f072fae","6791501762e86bf5e5a48d30","","null","<img  src='G_5.jpg' height='90'> <img   src='G_1.jpg' height='90'> <img  src='G_3.jpg' height='90'> <img src='G_9.jpg' height='90'> <img src='G_7.jpg' height='90'>","null","Animation0",""
"","","","","","html-keyboard-response","30","109765","0.0-16.0","19","1","2025-01-22 20:08:26","6073afb29c8d06c5d8f22ae9f1371ff8","89.34.228.113","Mozilla/5.0 (Windows NT 10.0; WOW64) AppleWebKit/537.36 (KHTML, like Gecko) Chrome/129.0.0.0 Safari/537.36","WebKit","Chrome","129.0.0.0","Windows","10.0","https://app.prolific.com/","en,en-US;q=0.9;q=0.9","678cde0c5b0dbb112da304ea","679147d2997803490f072fae","6791501762e86bf5e5a48d30","","null","<img  src='G_5.jpg' height='90'> <img   src='G_1.jpg' height='90'> <img id='selected'  src='G_3.jpg' height='90'> <img src='G_9.jpg' height='90'> <img src='G_7.jpg' height='90'>","null","Animation0",""
"","","","","","html-keyboard-response","31","110268","0.0-17.0","19","1","2025-01-22 20:08:26","6073afb29c8d06c5d8f22ae9f1371ff8","89.34.228.113","Mozilla/5.0 (Windows NT 10.0; WOW64) AppleWebKit/537.36 (KHTML, like Gecko) Chrome/129.0.0.0 Safari/537.36","WebKit","Chrome","129.0.0.0","Windows","10.0","https://app.prolific.com/","en,en-US;q=0.9;q=0.9","678cde0c5b0dbb112da304ea","679147d2997803490f072fae","6791501762e86bf5e5a48d30","","null","<img  src='G_5.jpg' height='90'> <img   src='G_1.jpg' height='90'> <img id='selected'  src='G_3.jpg' height='90'> <img id='selected' src='G_9.jpg' height='90'> <img src='G_7.jpg' height='90'>","null","Animation0",""
"","","","","","html-keyboard-response","32","110771","0.0-18.0","19","1","2025-01-22 20:08:26","6073afb29c8d06c5d8f22ae9f1371ff8","89.34.228.113","Mozilla/5.0 (Windows NT 10.0; WOW64) AppleWebKit/537.36 (KHTML, like Gecko) Chrome/129.0.0.0 Safari/537.36","WebKit","Chrome","129.0.0.0","Windows","10.0","https://app.prolific.com/","en,en-US;q=0.9;q=0.9","678cde0c5b0dbb112da304ea","679147d2997803490f072fae","6791501762e86bf5e5a48d30","","null","<img  src='G_5.jpg' height='90'> <img   src='G_1.jpg' height='90'> <img id='selected'  src='G_3.jpg' height='90'> <img id='selected' src='G_9.jpg' height='90'> <img src='G_7.jpg' height='90'>","null","Animation0",""
"","","","","","html-keyboard-response","33","111074","0.0-19.0","19","1","2025-01-22 20:08:26","6073afb29c8d06c5d8f22ae9f1371ff8","89.34.228.113","Mozilla/5.0 (Windows NT 10.0; WOW64) AppleWebKit/537.36 (KHTML, like Gecko) Chrome/129.0.0.0 Safari/537.36","WebKit","Chrome","129.0.0.0","Windows","10.0","https://app.prolific.com/","en,en-US;q=0.9;q=0.9","678cde0c5b0dbb112da304ea","679147d2997803490f072fae","6791501762e86bf5e5a48d30","","null","<img  src='G_5.jpg' height='90'> <img   src='G_1.jpg' height='90'> <img   src='G_3.jpg' height='90'> <img  src='G_9.jpg' height='90'> <img src='G_7.jpg' height='90'>","null","Animation0",""
"","","","","","html-keyboard-response","34","111577","0.0-20.0","19","1","2025-01-22 20:08:26","6073afb29c8d06c5d8f22ae9f1371ff8","89.34.228.113","Mozilla/5.0 (Windows NT 10.0; WOW64) AppleWebKit/537.36 (KHTML, like Gecko) Chrome/129.0.0.0 Safari/537.36","WebKit","Chrome","129.0.0.0","Windows","10.0","https://app.prolific.com/","en,en-US;q=0.9;q=0.9","678cde0c5b0dbb112da304ea","679147d2997803490f072fae","6791501762e86bf5e5a48d30","","null","<img  src='G_5.jpg' height='90'> <img   src='G_1.jpg' height='90'> <img   src='G_3.jpg' height='90'> <img id='selected'  src='G_9.jpg' height='90'> <img src='G_7.jpg' height='90'>","null","Animation0",""
"","","","","","html-keyboard-response","35","112080","0.0-21.0","19","1","2025-01-22 20:08:26","6073afb29c8d06c5d8f22ae9f1371ff8","89.34.228.113","Mozilla/5.0 (Windows NT 10.0; WOW64) AppleWebKit/537.36 (KHTML, like Gecko) Chrome/129.0.0.0 Safari/537.36","WebKit","Chrome","129.0.0.0","Windows","10.0","https://app.prolific.com/","en,en-US;q=0.9;q=0.9","678cde0c5b0dbb112da304ea","679147d2997803490f072fae","6791501762e86bf5e5a48d30","","null","<img  src='G_5.jpg' height='90'> <img   src='G_1.jpg' height='90'> <img   src='G_3.jpg' height='90'> <img id='selected'  src='G_9.jpg' height='90'> <img id='selected' src='G_7.jpg' height='90'>","null","Animation0",""
"","","","","","html-keyboard-response","36","112583","0.0-22.0","19","1","2025-01-22 20:08:26","6073afb29c8d06c5d8f22ae9f1371ff8","89.34.228.113","Mozilla/5.0 (Windows NT 10.0; WOW64) AppleWebKit/537.36 (KHTML, like Gecko) Chrome/129.0.0.0 Safari/537.36","WebKit","Chrome","129.0.0.0","Windows","10.0","https://app.prolific.com/","en,en-US;q=0.9;q=0.9","678cde0c5b0dbb112da304ea","679147d2997803490f072fae","6791501762e86bf5e5a48d30","","null","<img  src='G_5.jpg' height='90'> <img   src='G_1.jpg' height='90'> <img   src='G_3.jpg' height='90'> <img id='selected'  src='G_9.jpg' height='90'> <img id='selected' src='G_7.jpg' height='90'>","null","Animation0",""
"","","","","","html-keyboard-response","37","112885","0.0-23.0","19","1","2025-01-22 20:08:26","6073afb29c8d06c5d8f22ae9f1371ff8","89.34.228.113","Mozilla/5.0 (Windows NT 10.0; WOW64) AppleWebKit/537.36 (KHTML, like Gecko) Chrome/129.0.0.0 Safari/537.36","WebKit","Chrome","129.0.0.0","Windows","10.0","https://app.prolific.com/","en,en-US;q=0.9;q=0.9","678cde0c5b0dbb112da304ea","679147d2997803490f072fae","6791501762e86bf5e5a48d30","","null","<img  src='G_5.jpg' height='90'> <img   src='G_1.jpg' height='90'> <img   src='G_3.jpg' height='90'> <img   src='G_9.jpg' height='90'> <img  src='G_7.jpg' height='90'>","null","Animation0",""
"","","","","","html-keyboard-response","38","117598","0.0-24.0","19","1","2025-01-22 20:08:26","6073afb29c8d06c5d8f22ae9f1371ff8","89.34.228.113","Mozilla/5.0 (Windows NT 10.0; WOW64) AppleWebKit/537.36 (KHTML, like Gecko) Chrome/129.0.0.0 Safari/537.36","WebKit","Chrome","129.0.0.0","Windows","10.0","https://app.prolific.com/","en,en-US;q=0.9;q=0.9","678cde0c5b0dbb112da304ea","679147d2997803490f072fae","6791501762e86bf5e5a48d30","","4712","[""Did you notice any patterns? <br><br>Press Enter to watch that example again and follow the steps of Omgne Sort.""]","enter","",""
"","","","","","html-button-response","39","118001","0.0-25.0","19","1","2025-01-22 20:08:26","6073afb29c8d06c5d8f22ae9f1371ff8","89.34.228.113","Mozilla/5.0 (Windows NT 10.0; WOW64) AppleWebKit/537.36 (KHTML, like Gecko) Chrome/129.0.0.0 Safari/537.36","WebKit","Chrome","129.0.0.0","Windows","10.0","https://app.prolific.com/","en,en-US;q=0.9;q=0.9","678cde0c5b0dbb112da304ea","679147d2997803490f072fae","6791501762e86bf5e5a48d30","","null","<img id='selected' src='G_1.jpg' height='90'> <img src='G_5.jpg' height='90'> <img src='G_3.jpg' height='90'> <img src='G_9.jpg' height='90'> <img src='G_7.jpg' height='90'>","null","Learning example 0",""
"","","","","","html-button-response","40","118305","0.0-26.0","19","1","2025-01-22 20:08:26","6073afb29c8d06c5d8f22ae9f1371ff8","89.34.228.113","Mozilla/5.0 (Windows NT 10.0; WOW64) AppleWebKit/537.36 (KHTML, like Gecko) Chrome/129.0.0.0 Safari/537.36","WebKit","Chrome","129.0.0.0","Windows","10.0","https://app.prolific.com/","en,en-US;q=0.9;q=0.9","678cde0c5b0dbb112da304ea","679147d2997803490f072fae","6791501762e86bf5e5a48d30","","null","<img id='selected' src='G_1.jpg' height='90'> <img id='selected' src='G_5.jpg' height='90'> <img src='G_3.jpg' height='90'> <img src='G_9.jpg' height='90'> <img src='G_7.jpg' height='90'>","null","Learning example 0",""
"","","","","","html-button-response","41","118609","0.0-27.0","19","1","2025-01-22 20:08:26","6073afb29c8d06c5d8f22ae9f1371ff8","89.34.228.113","Mozilla/5.0 (Windows NT 10.0; WOW64) AppleWebKit/537.36 (KHTML, like Gecko) Chrome/129.0.0.0 Safari/537.36","WebKit","Chrome","129.0.0.0","Windows","10.0","https://app.prolific.com/","en,en-US;q=0.9;q=0.9","678cde0c5b0dbb112da304ea","679147d2997803490f072fae","6791501762e86bf5e5a48d30","","null","<img id='swapped' src='G_5.jpg' height='90'> <img id='swapped' src='G_1.jpg' height='90'> <img src='G_3.jpg' height='90'> <img src='G_9.jpg' height='90'> <img src='G_7.jpg' height='90'>","null","Learning example 0",""
"","","","","","html-button-response","42","152594","0.0-28.0-0.0-0.0","19","1","2025-01-22 20:08:26","6073afb29c8d06c5d8f22ae9f1371ff8","89.34.228.113","Mozilla/5.0 (Windows NT 10.0; WOW64) AppleWebKit/537.36 (KHTML, like Gecko) Chrome/129.0.0.0 Safari/537.36","WebKit","Chrome","129.0.0.0","Windows","10.0","https://app.prolific.com/","en,en-US;q=0.9;q=0.9","678cde0c5b0dbb112da304ea","679147d2997803490f072fae","6791501762e86bf5e5a48d30","","33982","<img id='swapped' src='G_5.jpg' height='90'> <img id='swapped' src='G_1.jpg' height='90'> <img src='G_3.jpg' height='90'> <img src='G_9.jpg' height='90'> <img src='G_7.jpg' height='90'>","1","Learning example 0",""
"","","","","","html-button-response","43","156529","0.0-28.1-0.1-0.1","19","1","2025-01-22 20:08:26","6073afb29c8d06c5d8f22ae9f1371ff8","89.34.228.113","Mozilla/5.0 (Windows NT 10.0; WOW64) AppleWebKit/537.36 (KHTML, like Gecko) Chrome/129.0.0.0 Safari/537.36","WebKit","Chrome","129.0.0.0","Windows","10.0","https://app.prolific.com/","en,en-US;q=0.9;q=0.9","678cde0c5b0dbb112da304ea","679147d2997803490f072fae","6791501762e86bf5e5a48d30","","3932","<img id='swapped' src='G_5.jpg' height='90'> <img id='swapped' src='G_1.jpg' height='90'> <img src='G_3.jpg' height='90'> <img src='G_9.jpg' height='90'> <img src='G_7.jpg' height='90'>","0","Learning example 0",""
"","","","","","html-button-response","44","156733","0.0-29.0","19","1","2025-01-22 20:08:26","6073afb29c8d06c5d8f22ae9f1371ff8","89.34.228.113","Mozilla/5.0 (Windows NT 10.0; WOW64) AppleWebKit/537.36 (KHTML, like Gecko) Chrome/129.0.0.0 Safari/537.36","WebKit","Chrome","129.0.0.0","Windows","10.0","https://app.prolific.com/","en,en-US;q=0.9;q=0.9","678cde0c5b0dbb112da304ea","679147d2997803490f072fae","6791501762e86bf5e5a48d30","","null","<img  src='G_5.jpg' height='90'> <img  src='G_1.jpg' height='90'> <img src='G_3.jpg' height='90'> <img src='G_9.jpg' height='90'> <img src='G_7.jpg' height='90'>","null","Learning example 0",""
"","","","","","html-button-response","45","157135","0.0-30.0","19","1","2025-01-22 20:08:26","6073afb29c8d06c5d8f22ae9f1371ff8","89.34.228.113","Mozilla/5.0 (Windows NT 10.0; WOW64) AppleWebKit/537.36 (KHTML, like Gecko) Chrome/129.0.0.0 Safari/537.36","WebKit","Chrome","129.0.0.0","Windows","10.0","https://app.prolific.com/","en,en-US;q=0.9;q=0.9","678cde0c5b0dbb112da304ea","679147d2997803490f072fae","6791501762e86bf5e5a48d30","","null","<img  src='G_5.jpg' height='90'> <img id='selected'  src='G_1.jpg' height='90'> <img src='G_3.jpg' height='90'> <img src='G_9.jpg' height='90'> <img src='G_7.jpg' height='90'>","null","Learning example 0",""
"","","","","","html-button-response","46","157438","0.0-31.0","19","1","2025-01-22 20:08:26","6073afb29c8d06c5d8f22ae9f1371ff8","89.34.228.113","Mozilla/5.0 (Windows NT 10.0; WOW64) AppleWebKit/537.36 (KHTML, like Gecko) Chrome/129.0.0.0 Safari/537.36","WebKit","Chrome","129.0.0.0","Windows","10.0","https://app.prolific.com/","en,en-US;q=0.9;q=0.9","678cde0c5b0dbb112da304ea","679147d2997803490f072fae","6791501762e86bf5e5a48d30","","null","<img  src='G_5.jpg' height='90'> <img id='selected'  src='G_1.jpg' height='90'> <img id='selected' src='G_3.jpg' height='90'> <img src='G_9.jpg' height='90'> <img src='G_7.jpg' height='90'>","null","Learning example 0",""
"","","","","","html-button-response","47","157741","0.0-32.0","19","1","2025-01-22 20:08:26","6073afb29c8d06c5d8f22ae9f1371ff8","89.34.228.113","Mozilla/5.0 (Windows NT 10.0; WOW64) AppleWebKit/537.36 (KHTML, like Gecko) Chrome/129.0.0.0 Safari/537.36","WebKit","Chrome","129.0.0.0","Windows","10.0","https://app.prolific.com/","en,en-US;q=0.9;q=0.9","678cde0c5b0dbb112da304ea","679147d2997803490f072fae","6791501762e86bf5e5a48d30","","null","<img  src='G_5.jpg' height='90'> <img id='selected'  src='G_1.jpg' height='90'> <img id='selected' src='G_3.jpg' height='90'> <img src='G_9.jpg' height='90'> <img src='G_7.jpg' height='90'>","null","Learning example 0",""
"","","","","","html-button-response","48","163704","0.0-33.0-0.0-0.0","19","1","2025-01-22 20:08:26","6073afb29c8d06c5d8f22ae9f1371ff8","89.34.228.113","Mozilla/5.0 (Windows NT 10.0; WOW64) AppleWebKit/537.36 (KHTML, like Gecko) Chrome/129.0.0.0 Safari/537.36","WebKit","Chrome","129.0.0.0","Windows","10.0","https://app.prolific.com/","en,en-US;q=0.9;q=0.9","678cde0c5b0dbb112da304ea","679147d2997803490f072fae","6791501762e86bf5e5a48d30","","5960","<img  src='G_5.jpg' height='90'> <img id='selected'  src='G_1.jpg' height='90'> <img id='selected' src='G_3.jpg' height='90'> <img src='G_9.jpg' height='90'> <img src='G_7.jpg' height='90'>","1","Learning example 0",""
"","","","","","html-button-response","49","164606","0.0-33.1-0.1-0.1","19","1","2025-01-22 20:08:26","6073afb29c8d06c5d8f22ae9f1371ff8","89.34.228.113","Mozilla/5.0 (Windows NT 10.0; WOW64) AppleWebKit/537.36 (KHTML, like Gecko) Chrome/129.0.0.0 Safari/537.36","WebKit","Chrome","129.0.0.0","Windows","10.0","https://app.prolific.com/","en,en-US;q=0.9;q=0.9","678cde0c5b0dbb112da304ea","679147d2997803490f072fae","6791501762e86bf5e5a48d30","","899","<img  src='G_5.jpg' height='90'> <img id='selected'  src='G_1.jpg' height='90'> <img id='selected' src='G_3.jpg' height='90'> <img src='G_9.jpg' height='90'> <img src='G_7.jpg' height='90'>","2","Learning example 0",""
"","","","","","html-button-response","50","164810","0.0-34.0","19","1","2025-01-22 20:08:26","6073afb29c8d06c5d8f22ae9f1371ff8","89.34.228.113","Mozilla/5.0 (Windows NT 10.0; WOW64) AppleWebKit/537.36 (KHTML, like Gecko) Chrome/129.0.0.0 Safari/537.36","WebKit","Chrome","129.0.0.0","Windows","10.0","https://app.prolific.com/","en,en-US;q=0.9;q=0.9","678cde0c5b0dbb112da304ea","679147d2997803490f072fae","6791501762e86bf5e5a48d30","","null","<img  src='G_5.jpg' height='90'> <img   src='G_1.jpg' height='90'> <img  src='G_3.jpg' height='90'> <img src='G_9.jpg' height='90'> <img src='G_7.jpg' height='90'>","null","Learning example 0",""
"","","","","","html-button-response","51","165213","0.0-35.0","19","1","2025-01-22 20:08:26","6073afb29c8d06c5d8f22ae9f1371ff8","89.34.228.113","Mozilla/5.0 (Windows NT 10.0; WOW64) AppleWebKit/537.36 (KHTML, like Gecko) Chrome/129.0.0.0 Safari/537.36","WebKit","Chrome","129.0.0.0","Windows","10.0","https://app.prolific.com/","en,en-US;q=0.9;q=0.9","678cde0c5b0dbb112da304ea","679147d2997803490f072fae","6791501762e86bf5e5a48d30","","null","<img  src='G_5.jpg' height='90'> <img   src='G_1.jpg' height='90'> <img id='selected'  src='G_3.jpg' height='90'> <img src='G_9.jpg' height='90'> <img src='G_7.jpg' height='90'>","null","Learning example 0",""
"","","","","","html-button-response","52","165517","0.0-36.0","19","1","2025-01-22 20:08:26","6073afb29c8d06c5d8f22ae9f1371ff8","89.34.228.113","Mozilla/5.0 (Windows NT 10.0; WOW64) AppleWebKit/537.36 (KHTML, like Gecko) Chrome/129.0.0.0 Safari/537.36","WebKit","Chrome","129.0.0.0","Windows","10.0","https://app.prolific.com/","en,en-US;q=0.9;q=0.9","678cde0c5b0dbb112da304ea","679147d2997803490f072fae","6791501762e86bf5e5a48d30","","null","<img  src='G_5.jpg' height='90'> <img   src='G_1.jpg' height='90'> <img id='selected'  src='G_3.jpg' height='90'> <img id='selected' src='G_9.jpg' height='90'> <img src='G_7.jpg' height='90'>","null","Learning example 0",""
"","","","","","html-button-response","53","165821","0.0-37.0","19","1","2025-01-22 20:08:26","6073afb29c8d06c5d8f22ae9f1371ff8","89.34.228.113","Mozilla/5.0 (Windows NT 10.0; WOW64) AppleWebKit/537.36 (KHTML, like Gecko) Chrome/129.0.0.0 Safari/537.36","WebKit","Chrome","129.0.0.0","Windows","10.0","https://app.prolific.com/","en,en-US;q=0.9;q=0.9","678cde0c5b0dbb112da304ea","679147d2997803490f072fae","6791501762e86bf5e5a48d30","","null","<img  src='G_5.jpg' height='90'> <img   src='G_1.jpg' height='90'> <img id='selected'  src='G_3.jpg' height='90'> <img id='selected' src='G_9.jpg' height='90'> <img src='G_7.jpg' height='90'>","null","Learning example 0",""
"","","","","","html-button-response","54","167417","0.0-38.0-0.0-0.0","19","1","2025-01-22 20:08:26","6073afb29c8d06c5d8f22ae9f1371ff8","89.34.228.113","Mozilla/5.0 (Windows NT 10.0; WOW64) AppleWebKit/537.36 (KHTML, like Gecko) Chrome/129.0.0.0 Safari/537.36","WebKit","Chrome","129.0.0.0","Windows","10.0","https://app.prolific.com/","en,en-US;q=0.9;q=0.9","678cde0c5b0dbb112da304ea","679147d2997803490f072fae","6791501762e86bf5e5a48d30","","1593","<img  src='G_5.jpg' height='90'> <img   src='G_1.jpg' height='90'> <img id='selected'  src='G_3.jpg' height='90'> <img id='selected' src='G_9.jpg' height='90'> <img src='G_7.jpg' height='90'>","2","Learning example 0",""
"","","","","","html-button-response","55","167931","0.0-38.1-0.1-0.1","19","1","2025-01-22 20:08:26","6073afb29c8d06c5d8f22ae9f1371ff8","89.34.228.113","Mozilla/5.0 (Windows NT 10.0; WOW64) AppleWebKit/537.36 (KHTML, like Gecko) Chrome/129.0.0.0 Safari/537.36","WebKit","Chrome","129.0.0.0","Windows","10.0","https://app.prolific.com/","en,en-US;q=0.9;q=0.9","678cde0c5b0dbb112da304ea","679147d2997803490f072fae","6791501762e86bf5e5a48d30","","511","<img  src='G_5.jpg' height='90'> <img   src='G_1.jpg' height='90'> <img id='selected'  src='G_3.jpg' height='90'> <img id='selected' src='G_9.jpg' height='90'> <img src='G_7.jpg' height='90'>","3","Learning example 0",""
"","","","","","html-button-response","56","168147","0.0-39.0","19","1","2025-01-22 20:08:26","6073afb29c8d06c5d8f22ae9f1371ff8","89.34.228.113","Mozilla/5.0 (Windows NT 10.0; WOW64) AppleWebKit/537.36 (KHTML, like Gecko) Chrome/129.0.0.0 Safari/537.36","WebKit","Chrome","129.0.0.0","Windows","10.0","https://app.prolific.com/","en,en-US;q=0.9;q=0.9","678cde0c5b0dbb112da304ea","679147d2997803490f072fae","6791501762e86bf5e5a48d30","","null","<img  src='G_5.jpg' height='90'> <img   src='G_1.jpg' height='90'> <img   src='G_3.jpg' height='90'> <img  src='G_9.jpg' height='90'> <img src='G_7.jpg' height='90'>","null","Learning example 0",""
"","","","","","html-button-response","57","168551","0.0-40.0","19","1","2025-01-22 20:08:26","6073afb29c8d06c5d8f22ae9f1371ff8","89.34.228.113","Mozilla/5.0 (Windows NT 10.0; WOW64) AppleWebKit/537.36 (KHTML, like Gecko) Chrome/129.0.0.0 Safari/537.36","WebKit","Chrome","129.0.0.0","Windows","10.0","https://app.prolific.com/","en,en-US;q=0.9;q=0.9","678cde0c5b0dbb112da304ea","679147d2997803490f072fae","6791501762e86bf5e5a48d30","","null","<img  src='G_5.jpg' height='90'> <img   src='G_1.jpg' height='90'> <img   src='G_3.jpg' height='90'> <img id='selected'  src='G_9.jpg' height='90'> <img src='G_7.jpg' height='90'>","null","Learning example 0",""
"","","","","","html-button-response","58","168855","0.0-41.0","19","1","2025-01-22 20:08:26","6073afb29c8d06c5d8f22ae9f1371ff8","89.34.228.113","Mozilla/5.0 (Windows NT 10.0; WOW64) AppleWebKit/537.36 (KHTML, like Gecko) Chrome/129.0.0.0 Safari/537.36","WebKit","Chrome","129.0.0.0","Windows","10.0","https://app.prolific.com/","en,en-US;q=0.9;q=0.9","678cde0c5b0dbb112da304ea","679147d2997803490f072fae","6791501762e86bf5e5a48d30","","null","<img  src='G_5.jpg' height='90'> <img   src='G_1.jpg' height='90'> <img   src='G_3.jpg' height='90'> <img id='selected'  src='G_9.jpg' height='90'> <img id='selected' src='G_7.jpg' height='90'>","null","Learning example 0",""
"","","","","","html-button-response","59","169174","0.0-42.0","19","1","2025-01-22 20:08:26","6073afb29c8d06c5d8f22ae9f1371ff8","89.34.228.113","Mozilla/5.0 (Windows NT 10.0; WOW64) AppleWebKit/537.36 (KHTML, like Gecko) Chrome/129.0.0.0 Safari/537.36","WebKit","Chrome","129.0.0.0","Windows","10.0","https://app.prolific.com/","en,en-US;q=0.9;q=0.9","678cde0c5b0dbb112da304ea","679147d2997803490f072fae","6791501762e86bf5e5a48d30","","null","<img  src='G_5.jpg' height='90'> <img   src='G_1.jpg' height='90'> <img   src='G_3.jpg' height='90'> <img id='selected'  src='G_9.jpg' height='90'> <img id='selected' src='G_7.jpg' height='90'>","null","Learning example 0",""
"","","","","","html-button-response","60","169715","0.0-43.0-0.0-0.0","19","1","2025-01-22 20:08:26","6073afb29c8d06c5d8f22ae9f1371ff8","89.34.228.113","Mozilla/5.0 (Windows NT 10.0; WOW64) AppleWebKit/537.36 (KHTML, like Gecko) Chrome/129.0.0.0 Safari/537.36","WebKit","Chrome","129.0.0.0","Windows","10.0","https://app.prolific.com/","en,en-US;q=0.9;q=0.9","678cde0c5b0dbb112da304ea","679147d2997803490f072fae","6791501762e86bf5e5a48d30","","537","<img  src='G_5.jpg' height='90'> <img   src='G_1.jpg' height='90'> <img   src='G_3.jpg' height='90'> <img id='selected'  src='G_9.jpg' height='90'> <img id='selected' src='G_7.jpg' height='90'>","3","Learning example 0",""
"","","","","","html-button-response","61","170273","0.0-43.1-0.1-0.1","19","1","2025-01-22 20:08:26","6073afb29c8d06c5d8f22ae9f1371ff8","89.34.228.113","Mozilla/5.0 (Windows NT 10.0; WOW64) AppleWebKit/537.36 (KHTML, like Gecko) Chrome/129.0.0.0 Safari/537.36","WebKit","Chrome","129.0.0.0","Windows","10.0","https://app.prolific.com/","en,en-US;q=0.9;q=0.9","678cde0c5b0dbb112da304ea","679147d2997803490f072fae","6791501762e86bf5e5a48d30","","554","<img  src='G_5.jpg' height='90'> <img   src='G_1.jpg' height='90'> <img   src='G_3.jpg' height='90'> <img id='selected'  src='G_9.jpg' height='90'> <img id='selected' src='G_7.jpg' height='90'>","4","Learning example 0",""
"","","","","","html-button-response","62","170479","0.0-44.0","19","1","2025-01-22 20:08:26","6073afb29c8d06c5d8f22ae9f1371ff8","89.34.228.113","Mozilla/5.0 (Windows NT 10.0; WOW64) AppleWebKit/537.36 (KHTML, like Gecko) Chrome/129.0.0.0 Safari/537.36","WebKit","Chrome","129.0.0.0","Windows","10.0","https://app.prolific.com/","en,en-US;q=0.9;q=0.9","678cde0c5b0dbb112da304ea","679147d2997803490f072fae","6791501762e86bf5e5a48d30","","null","<img  src='G_5.jpg' height='90'> <img   src='G_1.jpg' height='90'> <img   src='G_3.jpg' height='90'> <img   src='G_9.jpg' height='90'> <img  src='G_7.jpg' height='90'>","null","Learning example 0",""
"","","","","","html-keyboard-response","63","177481","0.0-45.0","19","1","2025-01-22 20:08:26","6073afb29c8d06c5d8f22ae9f1371ff8","89.34.228.113","Mozilla/5.0 (Windows NT 10.0; WOW64) AppleWebKit/537.36 (KHTML, like Gecko) Chrome/129.0.0.0 Safari/537.36","WebKit","Chrome","129.0.0.0","Windows","10.0","https://app.prolific.com/","en,en-US;q=0.9;q=0.9","678cde0c5b0dbb112da304ea","679147d2997803490f072fae","6791501762e86bf5e5a48d30","","6999","[""Final order was 1,2,3,4,5. The initial order was 2,1,3,4,5.<br>It took 1 swaps to sort it correctly with Omgne Sort. <br><br>Press Enter to continue.""]","enter","",""
"","","","","","instructions","64","193945","0.0-46.0","19","1","2025-01-22 20:08:26","6073afb29c8d06c5d8f22ae9f1371ff8","89.34.228.113","Mozilla/5.0 (Windows NT 10.0; WOW64) AppleWebKit/537.36 (KHTML, like Gecko) Chrome/129.0.0.0 Safari/537.36","WebKit","Chrome","129.0.0.0","Windows","10.0","https://app.prolific.com/","en,en-US;q=0.9;q=0.9","678cde0c5b0dbb112da304ea","679147d2997803490f072fae","6791501762e86bf5e5a48d30","[{""page_index"":0,""viewing_time"":1828},{""page_index"":1,""viewing_time"":11560},{""page_index"":2,""viewing_time"":1187},{""page_index"":3,""viewing_time"":1887}]","16462","","","",""
"","","","","","html-keyboard-response","65","196948","0.0-47.0","19","1","2025-01-22 20:08:26","6073afb29c8d06c5d8f22ae9f1371ff8","89.34.228.113","Mozilla/5.0 (Windows NT 10.0; WOW64) AppleWebKit/537.36 (KHTML, like Gecko) Chrome/129.0.0.0 Safari/537.36","WebKit","Chrome","129.0.0.0","Windows","10.0","https://app.prolific.com/","en,en-US;q=0.9;q=0.9","678cde0c5b0dbb112da304ea","679147d2997803490f072fae","6791501762e86bf5e5a48d30","","3001","[""Example 2<br><br>You will watch Omnge Sort in action. Try to identify any patterns in the comparisons made by this method. <br><br>Press Enter to continue.""]","enter","",""
"","","","","","html-keyboard-response","66","197452","0.0-48.0","19","1","2025-01-22 20:08:26","6073afb29c8d06c5d8f22ae9f1371ff8","89.34.228.113","Mozilla/5.0 (Windows NT 10.0; WOW64) AppleWebKit/537.36 (KHTML, like Gecko) Chrome/129.0.0.0 Safari/537.36","WebKit","Chrome","129.0.0.0","Windows","10.0","https://app.prolific.com/","en,en-US;q=0.9;q=0.9","678cde0c5b0dbb112da304ea","679147d2997803490f072fae","6791501762e86bf5e5a48d30","","null","<img id='selected' src='G_1.jpg' height='90'> <img src='G_5.jpg' height='90'> <img src='G_3.jpg' height='90'> <img src='G_9.jpg' height='90'> <img src='G_7.jpg' height='90'>","null","Animation1",""
"","","","","","html-keyboard-response","67","197955","0.0-49.0","19","1","2025-01-22 20:08:26","6073afb29c8d06c5d8f22ae9f1371ff8","89.34.228.113","Mozilla/5.0 (Windows NT 10.0; WOW64) AppleWebKit/537.36 (KHTML, like Gecko) Chrome/129.0.0.0 Safari/537.36","WebKit","Chrome","129.0.0.0","Windows","10.0","https://app.prolific.com/","en,en-US;q=0.9;q=0.9","678cde0c5b0dbb112da304ea","679147d2997803490f072fae","6791501762e86bf5e5a48d30","","null","<img id='selected' src='G_1.jpg' height='90'> <img id='selected' src='G_5.jpg' height='90'> <img src='G_3.jpg' height='90'> <img src='G_9.jpg' height='90'> <img src='G_7.jpg' height='90'>","null","Animation1",""
"","","","","","html-keyboard-response","68","198473","0.0-50.0","19","1","2025-01-22 20:08:26","6073afb29c8d06c5d8f22ae9f1371ff8","89.34.228.113","Mozilla/5.0 (Windows NT 10.0; WOW64) AppleWebKit/537.36 (KHTML, like Gecko) Chrome/129.0.0.0 Safari/537.36","WebKit","Chrome","129.0.0.0","Windows","10.0","https://app.prolific.com/","en,en-US;q=0.9;q=0.9","678cde0c5b0dbb112da304ea","679147d2997803490f072fae","6791501762e86bf5e5a48d30","","null","<img id='swapped' src='G_5.jpg' height='90'> <img id='swapped' src='G_1.jpg' height='90'> <img src='G_3.jpg' height='90'> <img src='G_9.jpg' height='90'> <img src='G_7.jpg' height='90'>","null","Animation1",""
"","","","","","html-keyboard-response","69","198776","0.0-51.0","19","1","2025-01-22 20:08:26","6073afb29c8d06c5d8f22ae9f1371ff8","89.34.228.113","Mozilla/5.0 (Windows NT 10.0; WOW64) AppleWebKit/537.36 (KHTML, like Gecko) Chrome/129.0.0.0 Safari/537.36","WebKit","Chrome","129.0.0.0","Windows","10.0","https://app.prolific.com/","en,en-US;q=0.9;q=0.9","678cde0c5b0dbb112da304ea","679147d2997803490f072fae","6791501762e86bf5e5a48d30","","null","<img  src='G_5.jpg' height='90'> <img  src='G_1.jpg' height='90'> <img src='G_3.jpg' height='90'> <img src='G_9.jpg' height='90'> <img src='G_7.jpg' height='90'>","null","Animation1",""
"","","","","","html-keyboard-response","70","199280","0.0-52.0","19","1","2025-01-22 20:08:26","6073afb29c8d06c5d8f22ae9f1371ff8","89.34.228.113","Mozilla/5.0 (Windows NT 10.0; WOW64) AppleWebKit/537.36 (KHTML, like Gecko) Chrome/129.0.0.0 Safari/537.36","WebKit","Chrome","129.0.0.0","Windows","10.0","https://app.prolific.com/","en,en-US;q=0.9;q=0.9","678cde0c5b0dbb112da304ea","679147d2997803490f072fae","6791501762e86bf5e5a48d30","","null","<img  src='G_5.jpg' height='90'> <img id='selected'  src='G_1.jpg' height='90'> <img src='G_3.jpg' height='90'> <img src='G_9.jpg' height='90'> <img src='G_7.jpg' height='90'>","null","Animation1",""
"","","","","","html-keyboard-response","71","199784","0.0-53.0","19","1","2025-01-22 20:08:26","6073afb29c8d06c5d8f22ae9f1371ff8","89.34.228.113","Mozilla/5.0 (Windows NT 10.0; WOW64) AppleWebKit/537.36 (KHTML, like Gecko) Chrome/129.0.0.0 Safari/537.36","WebKit","Chrome","129.0.0.0","Windows","10.0","https://app.prolific.com/","en,en-US;q=0.9;q=0.9","678cde0c5b0dbb112da304ea","679147d2997803490f072fae","6791501762e86bf5e5a48d30","","null","<img  src='G_5.jpg' height='90'> <img id='selected'  src='G_1.jpg' height='90'> <img id='selected' src='G_3.jpg' height='90'> <img src='G_9.jpg' height='90'> <img src='G_7.jpg' height='90'>","null","Animation1",""
"","","","","","html-keyboard-response","72","200286","0.0-54.0","19","1","2025-01-22 20:08:26","6073afb29c8d06c5d8f22ae9f1371ff8","89.34.228.113","Mozilla/5.0 (Windows NT 10.0; WOW64) AppleWebKit/537.36 (KHTML, like Gecko) Chrome/129.0.0.0 Safari/537.36","WebKit","Chrome","129.0.0.0","Windows","10.0","https://app.prolific.com/","en,en-US;q=0.9;q=0.9","678cde0c5b0dbb112da304ea","679147d2997803490f072fae","6791501762e86bf5e5a48d30","","null","<img  src='G_5.jpg' height='90'> <img id='swapped' src='G_3.jpg' height='90'> <img id='swapped'  src='G_1.jpg' height='90'> <img src='G_9.jpg' height='90'> <img src='G_7.jpg' height='90'>","null","Animation1",""
"","","","","","html-keyboard-response","73","200589","0.0-55.0","19","1","2025-01-22 20:08:26","6073afb29c8d06c5d8f22ae9f1371ff8","89.34.228.113","Mozilla/5.0 (Windows NT 10.0; WOW64) AppleWebKit/537.36 (KHTML, like Gecko) Chrome/129.0.0.0 Safari/537.36","WebKit","Chrome","129.0.0.0","Windows","10.0","https://app.prolific.com/","en,en-US;q=0.9;q=0.9","678cde0c5b0dbb112da304ea","679147d2997803490f072fae","6791501762e86bf5e5a48d30","","null","<img  src='G_5.jpg' height='90'> <img  src='G_3.jpg' height='90'> <img   src='G_1.jpg' height='90'> <img src='G_9.jpg' height='90'> <img src='G_7.jpg' height='90'>","null","Animation1",""
"","","","","","html-keyboard-response","74","201092","0.0-56.0","19","1","2025-01-22 20:08:26","6073afb29c8d06c5d8f22ae9f1371ff8","89.34.228.113","Mozilla/5.0 (Windows NT 10.0; WOW64) AppleWebKit/537.36 (KHTML, like Gecko) Chrome/129.0.0.0 Safari/537.36","WebKit","Chrome","129.0.0.0","Windows","10.0","https://app.prolific.com/","en,en-US;q=0.9;q=0.9","678cde0c5b0dbb112da304ea","679147d2997803490f072fae","6791501762e86bf5e5a48d30","","null","<img id='selected'  src='G_5.jpg' height='90'> <img  src='G_3.jpg' height='90'> <img   src='G_1.jpg' height='90'> <img src='G_9.jpg' height='90'> <img src='G_7.jpg' height='90'>","null","Animation1",""
"","","","","","html-keyboard-response","75","201595","0.0-57.0","19","1","2025-01-22 20:08:26","6073afb29c8d06c5d8f22ae9f1371ff8","89.34.228.113","Mozilla/5.0 (Windows NT 10.0; WOW64) AppleWebKit/537.36 (KHTML, like Gecko) Chrome/129.0.0.0 Safari/537.36","WebKit","Chrome","129.0.0.0","Windows","10.0","https://app.prolific.com/","en,en-US;q=0.9;q=0.9","678cde0c5b0dbb112da304ea","679147d2997803490f072fae","6791501762e86bf5e5a48d30","","null","<img id='selected'  src='G_5.jpg' height='90'> <img id='selected'  src='G_3.jpg' height='90'> <img   src='G_1.jpg' height='90'> <img src='G_9.jpg' height='90'> <img src='G_7.jpg' height='90'>","null","Animation1",""
"","","","","","html-keyboard-response","76","202098","0.0-58.0","19","1","2025-01-22 20:08:26","6073afb29c8d06c5d8f22ae9f1371ff8","89.34.228.113","Mozilla/5.0 (Windows NT 10.0; WOW64) AppleWebKit/537.36 (KHTML, like Gecko) Chrome/129.0.0.0 Safari/537.36","WebKit","Chrome","129.0.0.0","Windows","10.0","https://app.prolific.com/","en,en-US;q=0.9;q=0.9","678cde0c5b0dbb112da304ea","679147d2997803490f072fae","6791501762e86bf5e5a48d30","","null","<img id='swapped'  src='G_3.jpg' height='90'> <img id='swapped'  src='G_5.jpg' height='90'> <img   src='G_1.jpg' height='90'> <img src='G_9.jpg' height='90'> <img src='G_7.jpg' height='90'>","null","Animation1",""
"","","","","","html-keyboard-response","77","202401","0.0-59.0","19","1","2025-01-22 20:08:26","6073afb29c8d06c5d8f22ae9f1371ff8","89.34.228.113","Mozilla/5.0 (Windows NT 10.0; WOW64) AppleWebKit/537.36 (KHTML, like Gecko) Chrome/129.0.0.0 Safari/537.36","WebKit","Chrome","129.0.0.0","Windows","10.0","https://app.prolific.com/","en,en-US;q=0.9;q=0.9","678cde0c5b0dbb112da304ea","679147d2997803490f072fae","6791501762e86bf5e5a48d30","","null","<img   src='G_3.jpg' height='90'> <img   src='G_5.jpg' height='90'> <img   src='G_1.jpg' height='90'> <img src='G_9.jpg' height='90'> <img src='G_7.jpg' height='90'>","null","Animation1",""
"","","","","","html-keyboard-response","78","202904","0.0-60.0","19","1","2025-01-22 20:08:26","6073afb29c8d06c5d8f22ae9f1371ff8","89.34.228.113","Mozilla/5.0 (Windows NT 10.0; WOW64) AppleWebKit/537.36 (KHTML, like Gecko) Chrome/129.0.0.0 Safari/537.36","WebKit","Chrome","129.0.0.0","Windows","10.0","https://app.prolific.com/","en,en-US;q=0.9;q=0.9","678cde0c5b0dbb112da304ea","679147d2997803490f072fae","6791501762e86bf5e5a48d30","","null","<img   src='G_3.jpg' height='90'> <img   src='G_5.jpg' height='90'> <img id='selected'   src='G_1.jpg' height='90'> <img src='G_9.jpg' height='90'> <img src='G_7.jpg' height='90'>","null","Animation1",""
"","","","","","html-keyboard-response","79","203407","0.0-61.0","19","1","2025-01-22 20:08:26","6073afb29c8d06c5d8f22ae9f1371ff8","89.34.228.113","Mozilla/5.0 (Windows NT 10.0; WOW64) AppleWebKit/537.36 (KHTML, like Gecko) Chrome/129.0.0.0 Safari/537.36","WebKit","Chrome","129.0.0.0","Windows","10.0","https://app.prolific.com/","en,en-US;q=0.9;q=0.9","678cde0c5b0dbb112da304ea","679147d2997803490f072fae","6791501762e86bf5e5a48d30","","null","<img   src='G_3.jpg' height='90'> <img   src='G_5.jpg' height='90'> <img id='selected'   src='G_1.jpg' height='90'> <img id='selected' src='G_9.jpg' height='90'> <img src='G_7.jpg' height='90'>","null","Animation1",""
"","","","","","html-keyboard-response","80","203910","0.0-62.0","19","1","2025-01-22 20:08:26","6073afb29c8d06c5d8f22ae9f1371ff8","89.34.228.113","Mozilla/5.0 (Windows NT 10.0; WOW64) AppleWebKit/537.36 (KHTML, like Gecko) Chrome/129.0.0.0 Safari/537.36","WebKit","Chrome","129.0.0.0","Windows","10.0","https://app.prolific.com/","en,en-US;q=0.9;q=0.9","678cde0c5b0dbb112da304ea","679147d2997803490f072fae","6791501762e86bf5e5a48d30","","null","<img   src='G_3.jpg' height='90'> <img   src='G_5.jpg' height='90'> <img id='swapped' src='G_9.jpg' height='90'> <img id='swapped'   src='G_1.jpg' height='90'> <img src='G_7.jpg' height='90'>","null","Animation1",""
"","","","","","html-keyboard-response","81","204215","0.0-63.0","19","1","2025-01-22 20:08:26","6073afb29c8d06c5d8f22ae9f1371ff8","89.34.228.113","Mozilla/5.0 (Windows NT 10.0; WOW64) AppleWebKit/537.36 (KHTML, like Gecko) Chrome/129.0.0.0 Safari/537.36","WebKit","Chrome","129.0.0.0","Windows","10.0","https://app.prolific.com/","en,en-US;q=0.9;q=0.9","678cde0c5b0dbb112da304ea","679147d2997803490f072fae","6791501762e86bf5e5a48d30","","null","<img   src='G_3.jpg' height='90'> <img   src='G_5.jpg' height='90'> <img  src='G_9.jpg' height='90'> <img    src='G_1.jpg' height='90'> <img src='G_7.jpg' height='90'>","null","Animation1",""
"","","","","","html-keyboard-response","82","204719","0.0-64.0","19","1","2025-01-22 20:08:26","6073afb29c8d06c5d8f22ae9f1371ff8","89.34.228.113","Mozilla/5.0 (Windows NT 10.0; WOW64) AppleWebKit/537.36 (KHTML, like Gecko) Chrome/129.0.0.0 Safari/537.36","WebKit","Chrome","129.0.0.0","Windows","10.0","https://app.prolific.com/","en,en-US;q=0.9;q=0.9","678cde0c5b0dbb112da304ea","679147d2997803490f072fae","6791501762e86bf5e5a48d30","","null","<img   src='G_3.jpg' height='90'> <img id='selected'   src='G_5.jpg' height='90'> <img  src='G_9.jpg' height='90'> <img    src='G_1.jpg' height='90'> <img src='G_7.jpg' height='90'>","null","Animation1",""
"","","","","","html-keyboard-response","83","205222","0.0-65.0","19","1","2025-01-22 20:08:26","6073afb29c8d06c5d8f22ae9f1371ff8","89.34.228.113","Mozilla/5.0 (Windows NT 10.0; WOW64) AppleWebKit/537.36 (KHTML, like Gecko) Chrome/129.0.0.0 Safari/537.36","WebKit","Chrome","129.0.0.0","Windows","10.0","https://app.prolific.com/","en,en-US;q=0.9;q=0.9","678cde0c5b0dbb112da304ea","679147d2997803490f072fae","6791501762e86bf5e5a48d30","","null","<img   src='G_3.jpg' height='90'> <img id='selected'   src='G_5.jpg' height='90'> <img id='selected'  src='G_9.jpg' height='90'> <img    src='G_1.jpg' height='90'> <img src='G_7.jpg' height='90'>","null","Animation1",""
"","","","","","html-keyboard-response","84","205726","0.0-66.0","19","1","2025-01-22 20:08:26","6073afb29c8d06c5d8f22ae9f1371ff8","89.34.228.113","Mozilla/5.0 (Windows NT 10.0; WOW64) AppleWebKit/537.36 (KHTML, like Gecko) Chrome/129.0.0.0 Safari/537.36","WebKit","Chrome","129.0.0.0","Windows","10.0","https://app.prolific.com/","en,en-US;q=0.9;q=0.9","678cde0c5b0dbb112da304ea","679147d2997803490f072fae","6791501762e86bf5e5a48d30","","null","<img   src='G_3.jpg' height='90'> <img id='swapped'  src='G_9.jpg' height='90'> <img id='swapped'   src='G_5.jpg' height='90'> <img    src='G_1.jpg' height='90'> <img src='G_7.jpg' height='90'>","null","Animation1",""
"","","","","","html-keyboard-response","85","206029","0.0-67.0","19","1","2025-01-22 20:08:26","6073afb29c8d06c5d8f22ae9f1371ff8","89.34.228.113","Mozilla/5.0 (Windows NT 10.0; WOW64) AppleWebKit/537.36 (KHTML, like Gecko) Chrome/129.0.0.0 Safari/537.36","WebKit","Chrome","129.0.0.0","Windows","10.0","https://app.prolific.com/","en,en-US;q=0.9;q=0.9","678cde0c5b0dbb112da304ea","679147d2997803490f072fae","6791501762e86bf5e5a48d30","","null","<img   src='G_3.jpg' height='90'> <img   src='G_9.jpg' height='90'> <img    src='G_5.jpg' height='90'> <img    src='G_1.jpg' height='90'> <img src='G_7.jpg' height='90'>","null","Animation1",""
"","","","","","html-keyboard-response","86","206533","0.0-68.0","19","1","2025-01-22 20:08:26","6073afb29c8d06c5d8f22ae9f1371ff8","89.34.228.113","Mozilla/5.0 (Windows NT 10.0; WOW64) AppleWebKit/537.36 (KHTML, like Gecko) Chrome/129.0.0.0 Safari/537.36","WebKit","Chrome","129.0.0.0","Windows","10.0","https://app.prolific.com/","en,en-US;q=0.9;q=0.9","678cde0c5b0dbb112da304ea","679147d2997803490f072fae","6791501762e86bf5e5a48d30","","null","<img id='selected'   src='G_3.jpg' height='90'> <img   src='G_9.jpg' height='90'> <img    src='G_5.jpg' height='90'> <img    src='G_1.jpg' height='90'> <img src='G_7.jpg' height='90'>","null","Animation1",""
"","","","","","html-keyboard-response","87","207037","0.0-69.0","19","1","2025-01-22 20:08:26","6073afb29c8d06c5d8f22ae9f1371ff8","89.34.228.113","Mozilla/5.0 (Windows NT 10.0; WOW64) AppleWebKit/537.36 (KHTML, like Gecko) Chrome/129.0.0.0 Safari/537.36","WebKit","Chrome","129.0.0.0","Windows","10.0","https://app.prolific.com/","en,en-US;q=0.9;q=0.9","678cde0c5b0dbb112da304ea","679147d2997803490f072fae","6791501762e86bf5e5a48d30","","null","<img id='selected'   src='G_3.jpg' height='90'> <img id='selected'   src='G_9.jpg' height='90'> <img    src='G_5.jpg' height='90'> <img    src='G_1.jpg' height='90'> <img src='G_7.jpg' height='90'>","null","Animation1",""
"","","","","","html-keyboard-response","88","207540","0.0-70.0","19","1","2025-01-22 20:08:26","6073afb29c8d06c5d8f22ae9f1371ff8","89.34.228.113","Mozilla/5.0 (Windows NT 10.0; WOW64) AppleWebKit/537.36 (KHTML, like Gecko) Chrome/129.0.0.0 Safari/537.36","WebKit","Chrome","129.0.0.0","Windows","10.0","https://app.prolific.com/","en,en-US;q=0.9;q=0.9","678cde0c5b0dbb112da304ea","679147d2997803490f072fae","6791501762e86bf5e5a48d30","","null","<img id='swapped'   src='G_9.jpg' height='90'> <img id='swapped'   src='G_3.jpg' height='90'> <img    src='G_5.jpg' height='90'> <img    src='G_1.jpg' height='90'> <img src='G_7.jpg' height='90'>","null","Animation1",""
"","","","","","html-keyboard-response","89","207844","0.0-71.0","19","1","2025-01-22 20:08:26","6073afb29c8d06c5d8f22ae9f1371ff8","89.34.228.113","Mozilla/5.0 (Windows NT 10.0; WOW64) AppleWebKit/537.36 (KHTML, like Gecko) Chrome/129.0.0.0 Safari/537.36","WebKit","Chrome","129.0.0.0","Windows","10.0","https://app.prolific.com/","en,en-US;q=0.9;q=0.9","678cde0c5b0dbb112da304ea","679147d2997803490f072fae","6791501762e86bf5e5a48d30","","null","<img    src='G_9.jpg' height='90'> <img    src='G_3.jpg' height='90'> <img    src='G_5.jpg' height='90'> <img    src='G_1.jpg' height='90'> <img src='G_7.jpg' height='90'>","null","Animation1",""
"","","","","","html-keyboard-response","90","208348","0.0-72.0","19","1","2025-01-22 20:08:26","6073afb29c8d06c5d8f22ae9f1371ff8","89.34.228.113","Mozilla/5.0 (Windows NT 10.0; WOW64) AppleWebKit/537.36 (KHTML, like Gecko) Chrome/129.0.0.0 Safari/537.36","WebKit","Chrome","129.0.0.0","Windows","10.0","https://app.prolific.com/","en,en-US;q=0.9;q=0.9","678cde0c5b0dbb112da304ea","679147d2997803490f072fae","6791501762e86bf5e5a48d30","","null","<img    src='G_9.jpg' height='90'> <img    src='G_3.jpg' height='90'> <img    src='G_5.jpg' height='90'> <img id='selected'    src='G_1.jpg' height='90'> <img src='G_7.jpg' height='90'>","null","Animation1",""
"","","","","","html-keyboard-response","91","208854","0.0-73.0","19","1","2025-01-22 20:08:26","6073afb29c8d06c5d8f22ae9f1371ff8","89.34.228.113","Mozilla/5.0 (Windows NT 10.0; WOW64) AppleWebKit/537.36 (KHTML, like Gecko) Chrome/129.0.0.0 Safari/537.36","WebKit","Chrome","129.0.0.0","Windows","10.0","https://app.prolific.com/","en,en-US;q=0.9;q=0.9","678cde0c5b0dbb112da304ea","679147d2997803490f072fae","6791501762e86bf5e5a48d30","","null","<img    src='G_9.jpg' height='90'> <img    src='G_3.jpg' height='90'> <img    src='G_5.jpg' height='90'> <img id='selected'    src='G_1.jpg' height='90'> <img id='selected' src='G_7.jpg' height='90'>","null","Animation1",""
"","","","","","html-keyboard-response","92","209358","0.0-74.0","19","1","2025-01-22 20:08:26","6073afb29c8d06c5d8f22ae9f1371ff8","89.34.228.113","Mozilla/5.0 (Windows NT 10.0; WOW64) AppleWebKit/537.36 (KHTML, like Gecko) Chrome/129.0.0.0 Safari/537.36","WebKit","Chrome","129.0.0.0","Windows","10.0","https://app.prolific.com/","en,en-US;q=0.9;q=0.9","678cde0c5b0dbb112da304ea","679147d2997803490f072fae","6791501762e86bf5e5a48d30","","null","<img    src='G_9.jpg' height='90'> <img    src='G_3.jpg' height='90'> <img    src='G_5.jpg' height='90'> <img id='swapped' src='G_7.jpg' height='90'> <img id='swapped'    src='G_1.jpg' height='90'>","null","Animation1",""
"","","","","","html-keyboard-response","93","209661","0.0-75.0","19","1","2025-01-22 20:08:26","6073afb29c8d06c5d8f22ae9f1371ff8","89.34.228.113","Mozilla/5.0 (Windows NT 10.0; WOW64) AppleWebKit/537.36 (KHTML, like Gecko) Chrome/129.0.0.0 Safari/537.36","WebKit","Chrome","129.0.0.0","Windows","10.0","https://app.prolific.com/","en,en-US;q=0.9;q=0.9","678cde0c5b0dbb112da304ea","679147d2997803490f072fae","6791501762e86bf5e5a48d30","","null","<img    src='G_9.jpg' height='90'> <img    src='G_3.jpg' height='90'> <img    src='G_5.jpg' height='90'> <img  src='G_7.jpg' height='90'> <img     src='G_1.jpg' height='90'>","null","Animation1",""
"","","","","","html-keyboard-response","94","210164","0.0-76.0","19","1","2025-01-22 20:08:26","6073afb29c8d06c5d8f22ae9f1371ff8","89.34.228.113","Mozilla/5.0 (Windows NT 10.0; WOW64) AppleWebKit/537.36 (KHTML, like Gecko) Chrome/129.0.0.0 Safari/537.36","WebKit","Chrome","129.0.0.0","Windows","10.0","https://app.prolific.com/","en,en-US;q=0.9;q=0.9","678cde0c5b0dbb112da304ea","679147d2997803490f072fae","6791501762e86bf5e5a48d30","","null","<img    src='G_9.jpg' height='90'> <img    src='G_3.jpg' height='90'> <img id='selected'    src='G_5.jpg' height='90'> <img  src='G_7.jpg' height='90'> <img     src='G_1.jpg' height='90'>","null","Animation1",""
"","","","","","html-keyboard-response","95","210669","0.0-77.0","19","1","2025-01-22 20:08:26","6073afb29c8d06c5d8f22ae9f1371ff8","89.34.228.113","Mozilla/5.0 (Windows NT 10.0; WOW64) AppleWebKit/537.36 (KHTML, like Gecko) Chrome/129.0.0.0 Safari/537.36","WebKit","Chrome","129.0.0.0","Windows","10.0","https://app.prolific.com/","en,en-US;q=0.9;q=0.9","678cde0c5b0dbb112da304ea","679147d2997803490f072fae","6791501762e86bf5e5a48d30","","null","<img    src='G_9.jpg' height='90'> <img    src='G_3.jpg' height='90'> <img id='selected'    src='G_5.jpg' height='90'> <img id='selected'  src='G_7.jpg' height='90'> <img     src='G_1.jpg' height='90'>","null","Animation1",""
"","","","","","html-keyboard-response","96","211175","0.0-78.0","19","1","2025-01-22 20:08:26","6073afb29c8d06c5d8f22ae9f1371ff8","89.34.228.113","Mozilla/5.0 (Windows NT 10.0; WOW64) AppleWebKit/537.36 (KHTML, like Gecko) Chrome/129.0.0.0 Safari/537.36","WebKit","Chrome","129.0.0.0","Windows","10.0","https://app.prolific.com/","en,en-US;q=0.9;q=0.9","678cde0c5b0dbb112da304ea","679147d2997803490f072fae","6791501762e86bf5e5a48d30","","null","<img    src='G_9.jpg' height='90'> <img    src='G_3.jpg' height='90'> <img id='swapped'  src='G_7.jpg' height='90'> <img id='swapped'    src='G_5.jpg' height='90'> <img     src='G_1.jpg' height='90'>","null","Animation1",""
"","","","","","html-keyboard-response","97","211478","0.0-79.0","19","1","2025-01-22 20:08:26","6073afb29c8d06c5d8f22ae9f1371ff8","89.34.228.113","Mozilla/5.0 (Windows NT 10.0; WOW64) AppleWebKit/537.36 (KHTML, like Gecko) Chrome/129.0.0.0 Safari/537.36","WebKit","Chrome","129.0.0.0","Windows","10.0","https://app.prolific.com/","en,en-US;q=0.9;q=0.9","678cde0c5b0dbb112da304ea","679147d2997803490f072fae","6791501762e86bf5e5a48d30","","null","<img    src='G_9.jpg' height='90'> <img    src='G_3.jpg' height='90'> <img   src='G_7.jpg' height='90'> <img     src='G_5.jpg' height='90'> <img     src='G_1.jpg' height='90'>","null","Animation1",""
"","","","","","html-keyboard-response","98","211981","0.0-80.0","19","1","2025-01-22 20:08:26","6073afb29c8d06c5d8f22ae9f1371ff8","89.34.228.113","Mozilla/5.0 (Windows NT 10.0; WOW64) AppleWebKit/537.36 (KHTML, like Gecko) Chrome/129.0.0.0 Safari/537.36","WebKit","Chrome","129.0.0.0","Windows","10.0","https://app.prolific.com/","en,en-US;q=0.9;q=0.9","678cde0c5b0dbb112da304ea","679147d2997803490f072fae","6791501762e86bf5e5a48d30","","null","<img    src='G_9.jpg' height='90'> <img id='selected'    src='G_3.jpg' height='90'> <img   src='G_7.jpg' height='90'> <img     src='G_5.jpg' height='90'> <img     src='G_1.jpg' height='90'>","null","Animation1",""
"","","","","","html-keyboard-response","99","212484","0.0-81.0","19","1","2025-01-22 20:08:26","6073afb29c8d06c5d8f22ae9f1371ff8","89.34.228.113","Mozilla/5.0 (Windows NT 10.0; WOW64) AppleWebKit/537.36 (KHTML, like Gecko) Chrome/129.0.0.0 Safari/537.36","WebKit","Chrome","129.0.0.0","Windows","10.0","https://app.prolific.com/","en,en-US;q=0.9;q=0.9","678cde0c5b0dbb112da304ea","679147d2997803490f072fae","6791501762e86bf5e5a48d30","","null","<img    src='G_9.jpg' height='90'> <img id='selected'    src='G_3.jpg' height='90'> <img id='selected'   src='G_7.jpg' height='90'> <img     src='G_5.jpg' height='90'> <img     src='G_1.jpg' height='90'>","null","Animation1",""
"","","","","","html-keyboard-response","100","212988","0.0-82.0","19","1","2025-01-22 20:08:26","6073afb29c8d06c5d8f22ae9f1371ff8","89.34.228.113","Mozilla/5.0 (Windows NT 10.0; WOW64) AppleWebKit/537.36 (KHTML, like Gecko) Chrome/129.0.0.0 Safari/537.36","WebKit","Chrome","129.0.0.0","Windows","10.0","https://app.prolific.com/","en,en-US;q=0.9;q=0.9","678cde0c5b0dbb112da304ea","679147d2997803490f072fae","6791501762e86bf5e5a48d30","","null","<img    src='G_9.jpg' height='90'> <img id='swapped'   src='G_7.jpg' height='90'> <img id='swapped'    src='G_3.jpg' height='90'> <img     src='G_5.jpg' height='90'> <img     src='G_1.jpg' height='90'>","null","Animation1",""
"","","","","","html-keyboard-response","101","213292","0.0-83.0","19","1","2025-01-22 20:08:26","6073afb29c8d06c5d8f22ae9f1371ff8","89.34.228.113","Mozilla/5.0 (Windows NT 10.0; WOW64) AppleWebKit/537.36 (KHTML, like Gecko) Chrome/129.0.0.0 Safari/537.36","WebKit","Chrome","129.0.0.0","Windows","10.0","https://app.prolific.com/","en,en-US;q=0.9;q=0.9","678cde0c5b0dbb112da304ea","679147d2997803490f072fae","6791501762e86bf5e5a48d30","","null","<img    src='G_9.jpg' height='90'> <img    src='G_7.jpg' height='90'> <img     src='G_3.jpg' height='90'> <img     src='G_5.jpg' height='90'> <img     src='G_1.jpg' height='90'>","null","Animation1",""
"","","","","","html-keyboard-response","102","213794","0.0-84.0","19","1","2025-01-22 20:08:26","6073afb29c8d06c5d8f22ae9f1371ff8","89.34.228.113","Mozilla/5.0 (Windows NT 10.0; WOW64) AppleWebKit/537.36 (KHTML, like Gecko) Chrome/129.0.0.0 Safari/537.36","WebKit","Chrome","129.0.0.0","Windows","10.0","https://app.prolific.com/","en,en-US;q=0.9;q=0.9","678cde0c5b0dbb112da304ea","679147d2997803490f072fae","6791501762e86bf5e5a48d30","","null","<img id='selected'    src='G_9.jpg' height='90'> <img    src='G_7.jpg' height='90'> <img     src='G_3.jpg' height='90'> <img     src='G_5.jpg' height='90'> <img     src='G_1.jpg' height='90'>","null","Animation1",""
"","","","","","html-keyboard-response","103","214297","0.0-85.0","19","1","2025-01-22 20:08:26","6073afb29c8d06c5d8f22ae9f1371ff8","89.34.228.113","Mozilla/5.0 (Windows NT 10.0; WOW64) AppleWebKit/537.36 (KHTML, like Gecko) Chrome/129.0.0.0 Safari/537.36","WebKit","Chrome","129.0.0.0","Windows","10.0","https://app.prolific.com/","en,en-US;q=0.9;q=0.9","678cde0c5b0dbb112da304ea","679147d2997803490f072fae","6791501762e86bf5e5a48d30","","null","<img id='selected'    src='G_9.jpg' height='90'> <img id='selected'    src='G_7.jpg' height='90'> <img     src='G_3.jpg' height='90'> <img     src='G_5.jpg' height='90'> <img     src='G_1.jpg' height='90'>","null","Animation1",""
"","","","","","html-keyboard-response","104","214802","0.0-86.0","19","1","2025-01-22 20:08:26","6073afb29c8d06c5d8f22ae9f1371ff8","89.34.228.113","Mozilla/5.0 (Windows NT 10.0; WOW64) AppleWebKit/537.36 (KHTML, like Gecko) Chrome/129.0.0.0 Safari/537.36","WebKit","Chrome","129.0.0.0","Windows","10.0","https://app.prolific.com/","en,en-US;q=0.9;q=0.9","678cde0c5b0dbb112da304ea","679147d2997803490f072fae","6791501762e86bf5e5a48d30","","null","<img id='swapped'    src='G_7.jpg' height='90'> <img id='swapped'    src='G_9.jpg' height='90'> <img     src='G_3.jpg' height='90'> <img     src='G_5.jpg' height='90'> <img     src='G_1.jpg' height='90'>","null","Animation1",""
"","","","","","html-keyboard-response","105","215106","0.0-87.0","19","1","2025-01-22 20:08:26","6073afb29c8d06c5d8f22ae9f1371ff8","89.34.228.113","Mozilla/5.0 (Windows NT 10.0; WOW64) AppleWebKit/537.36 (KHTML, like Gecko) Chrome/129.0.0.0 Safari/537.36","WebKit","Chrome","129.0.0.0","Windows","10.0","https://app.prolific.com/","en,en-US;q=0.9;q=0.9","678cde0c5b0dbb112da304ea","679147d2997803490f072fae","6791501762e86bf5e5a48d30","","null","<img     src='G_7.jpg' height='90'> <img     src='G_9.jpg' height='90'> <img     src='G_3.jpg' height='90'> <img     src='G_5.jpg' height='90'> <img     src='G_1.jpg' height='90'>","null","Animation1",""
"","","","","","html-keyboard-response","106","218913","0.0-88.0","19","1","2025-01-22 20:08:26","6073afb29c8d06c5d8f22ae9f1371ff8","89.34.228.113","Mozilla/5.0 (Windows NT 10.0; WOW64) AppleWebKit/537.36 (KHTML, like Gecko) Chrome/129.0.0.0 Safari/537.36","WebKit","Chrome","129.0.0.0","Windows","10.0","https://app.prolific.com/","en,en-US;q=0.9;q=0.9","678cde0c5b0dbb112da304ea","679147d2997803490f072fae","6791501762e86bf5e5a48d30","","3804","[""Did you notice any patterns? <br><br>Press Enter to watch that example again and follow the steps of Omgne Sort.""]","enter","",""
"","","","","","html-button-response","107","219317","0.0-89.0","19","1","2025-01-22 20:08:26","6073afb29c8d06c5d8f22ae9f1371ff8","89.34.228.113","Mozilla/5.0 (Windows NT 10.0; WOW64) AppleWebKit/537.36 (KHTML, like Gecko) Chrome/129.0.0.0 Safari/537.36","WebKit","Chrome","129.0.0.0","Windows","10.0","https://app.prolific.com/","en,en-US;q=0.9;q=0.9","678cde0c5b0dbb112da304ea","679147d2997803490f072fae","6791501762e86bf5e5a48d30","","null","<img id='selected' src='G_1.jpg' height='90'> <img src='G_5.jpg' height='90'> <img src='G_3.jpg' height='90'> <img src='G_9.jpg' height='90'> <img src='G_7.jpg' height='90'>","null","Learning example 1",""
"","","","","","html-button-response","108","219621","0.0-90.0","19","1","2025-01-22 20:08:26","6073afb29c8d06c5d8f22ae9f1371ff8","89.34.228.113","Mozilla/5.0 (Windows NT 10.0; WOW64) AppleWebKit/537.36 (KHTML, like Gecko) Chrome/129.0.0.0 Safari/537.36","WebKit","Chrome","129.0.0.0","Windows","10.0","https://app.prolific.com/","en,en-US;q=0.9;q=0.9","678cde0c5b0dbb112da304ea","679147d2997803490f072fae","6791501762e86bf5e5a48d30","","null","<img id='selected' src='G_1.jpg' height='90'> <img id='selected' src='G_5.jpg' height='90'> <img src='G_3.jpg' height='90'> <img src='G_9.jpg' height='90'> <img src='G_7.jpg' height='90'>","null","Learning example 1",""
"","","","","","html-button-response","109","219925","0.0-91.0","19","1","2025-01-22 20:08:26","6073afb29c8d06c5d8f22ae9f1371ff8","89.34.228.113","Mozilla/5.0 (Windows NT 10.0; WOW64) AppleWebKit/537.36 (KHTML, like Gecko) Chrome/129.0.0.0 Safari/537.36","WebKit","Chrome","129.0.0.0","Windows","10.0","https://app.prolific.com/","en,en-US;q=0.9;q=0.9","678cde0c5b0dbb112da304ea","679147d2997803490f072fae","6791501762e86bf5e5a48d30","","null","<img id='swapped' src='G_5.jpg' height='90'> <img id='swapped' src='G_1.jpg' height='90'> <img src='G_3.jpg' height='90'> <img src='G_9.jpg' height='90'> <img src='G_7.jpg' height='90'>","null","Learning example 1",""
"","","","","","html-button-response","110","226053","0.0-92.0-0.0-0.0","19","1","2025-01-22 20:08:26","6073afb29c8d06c5d8f22ae9f1371ff8","89.34.228.113","Mozilla/5.0 (Windows NT 10.0; WOW64) AppleWebKit/537.36 (KHTML, like Gecko) Chrome/129.0.0.0 Safari/537.36","WebKit","Chrome","129.0.0.0","Windows","10.0","https://app.prolific.com/","en,en-US;q=0.9;q=0.9","678cde0c5b0dbb112da304ea","679147d2997803490f072fae","6791501762e86bf5e5a48d30","","6125","<img id='swapped' src='G_5.jpg' height='90'> <img id='swapped' src='G_1.jpg' height='90'> <img src='G_3.jpg' height='90'> <img src='G_9.jpg' height='90'> <img src='G_7.jpg' height='90'>","0","Learning example 1",""
"","","","","","html-button-response","111","226337","0.0-92.1-0.1-0.1","19","1","2025-01-22 20:08:26","6073afb29c8d06c5d8f22ae9f1371ff8","89.34.228.113","Mozilla/5.0 (Windows NT 10.0; WOW64) AppleWebKit/537.36 (KHTML, like Gecko) Chrome/129.0.0.0 Safari/537.36","WebKit","Chrome","129.0.0.0","Windows","10.0","https://app.prolific.com/","en,en-US;q=0.9;q=0.9","678cde0c5b0dbb112da304ea","679147d2997803490f072fae","6791501762e86bf5e5a48d30","","278","<img id='swapped' src='G_5.jpg' height='90'> <img id='swapped' src='G_1.jpg' height='90'> <img src='G_3.jpg' height='90'> <img src='G_9.jpg' height='90'> <img src='G_7.jpg' height='90'>","1","Learning example 1",""
"","","","","","html-button-response","112","226543","0.0-93.0","19","1","2025-01-22 20:08:26","6073afb29c8d06c5d8f22ae9f1371ff8","89.34.228.113","Mozilla/5.0 (Windows NT 10.0; WOW64) AppleWebKit/537.36 (KHTML, like Gecko) Chrome/129.0.0.0 Safari/537.36","WebKit","Chrome","129.0.0.0","Windows","10.0","https://app.prolific.com/","en,en-US;q=0.9;q=0.9","678cde0c5b0dbb112da304ea","679147d2997803490f072fae","6791501762e86bf5e5a48d30","","null","<img  src='G_5.jpg' height='90'> <img  src='G_1.jpg' height='90'> <img src='G_3.jpg' height='90'> <img src='G_9.jpg' height='90'> <img src='G_7.jpg' height='90'>","null","Learning example 1",""
"","","","","","html-button-response","113","226948","0.0-94.0","19","1","2025-01-22 20:08:26","6073afb29c8d06c5d8f22ae9f1371ff8","89.34.228.113","Mozilla/5.0 (Windows NT 10.0; WOW64) AppleWebKit/537.36 (KHTML, like Gecko) Chrome/129.0.0.0 Safari/537.36","WebKit","Chrome","129.0.0.0","Windows","10.0","https://app.prolific.com/","en,en-US;q=0.9;q=0.9","678cde0c5b0dbb112da304ea","679147d2997803490f072fae","6791501762e86bf5e5a48d30","","null","<img  src='G_5.jpg' height='90'> <img id='selected'  src='G_1.jpg' height='90'> <img src='G_3.jpg' height='90'> <img src='G_9.jpg' height='90'> <img src='G_7.jpg' height='90'>","null","Learning example 1",""
"","","","","","html-button-response","114","227252","0.0-95.0","19","1","2025-01-22 20:08:26","6073afb29c8d06c5d8f22ae9f1371ff8","89.34.228.113","Mozilla/5.0 (Windows NT 10.0; WOW64) AppleWebKit/537.36 (KHTML, like Gecko) Chrome/129.0.0.0 Safari/537.36","WebKit","Chrome","129.0.0.0","Windows","10.0","https://app.prolific.com/","en,en-US;q=0.9;q=0.9","678cde0c5b0dbb112da304ea","679147d2997803490f072fae","6791501762e86bf5e5a48d30","","null","<img  src='G_5.jpg' height='90'> <img id='selected'  src='G_1.jpg' height='90'> <img id='selected' src='G_3.jpg' height='90'> <img src='G_9.jpg' height='90'> <img src='G_7.jpg' height='90'>","null","Learning example 1",""
"","","","","","html-button-response","115","227556","0.0-96.0","19","1","2025-01-22 20:08:26","6073afb29c8d06c5d8f22ae9f1371ff8","89.34.228.113","Mozilla/5.0 (Windows NT 10.0; WOW64) AppleWebKit/537.36 (KHTML, like Gecko) Chrome/129.0.0.0 Safari/537.36","WebKit","Chrome","129.0.0.0","Windows","10.0","https://app.prolific.com/","en,en-US;q=0.9;q=0.9","678cde0c5b0dbb112da304ea","679147d2997803490f072fae","6791501762e86bf5e5a48d30","","null","<img  src='G_5.jpg' height='90'> <img id='swapped' src='G_3.jpg' height='90'> <img id='swapped'  src='G_1.jpg' height='90'> <img src='G_9.jpg' height='90'> <img src='G_7.jpg' height='90'>","null","Learning example 1",""
"","","","","","html-button-response","116","230961","0.0-97.0-0.0-0.0","19","1","2025-01-22 20:08:26","6073afb29c8d06c5d8f22ae9f1371ff8","89.34.228.113","Mozilla/5.0 (Windows NT 10.0; WOW64) AppleWebKit/537.36 (KHTML, like Gecko) Chrome/129.0.0.0 Safari/537.36","WebKit","Chrome","129.0.0.0","Windows","10.0","https://app.prolific.com/","en,en-US;q=0.9;q=0.9","678cde0c5b0dbb112da304ea","679147d2997803490f072fae","6791501762e86bf5e5a48d30","","3402","<img  src='G_5.jpg' height='90'> <img id='swapped' src='G_3.jpg' height='90'> <img id='swapped'  src='G_1.jpg' height='90'> <img src='G_9.jpg' height='90'> <img src='G_7.jpg' height='90'>","1","Learning example 1",""
"","","","","","html-button-response","117","236888","0.0-97.1-0.1-0.1","19","1","2025-01-22 20:08:26","6073afb29c8d06c5d8f22ae9f1371ff8","89.34.228.113","Mozilla/5.0 (Windows NT 10.0; WOW64) AppleWebKit/537.36 (KHTML, like Gecko) Chrome/129.0.0.0 Safari/537.36","WebKit","Chrome","129.0.0.0","Windows","10.0","https://app.prolific.com/","en,en-US;q=0.9;q=0.9","678cde0c5b0dbb112da304ea","679147d2997803490f072fae","6791501762e86bf5e5a48d30","","5922","<img  src='G_5.jpg' height='90'> <img id='swapped' src='G_3.jpg' height='90'> <img id='swapped'  src='G_1.jpg' height='90'> <img src='G_9.jpg' height='90'> <img src='G_7.jpg' height='90'>","2","Learning example 1",""
"","","","","","html-button-response","118","237093","0.0-98.0","19","1","2025-01-22 20:08:26","6073afb29c8d06c5d8f22ae9f1371ff8","89.34.228.113","Mozilla/5.0 (Windows NT 10.0; WOW64) AppleWebKit/537.36 (KHTML, like Gecko) Chrome/129.0.0.0 Safari/537.36","WebKit","Chrome","129.0.0.0","Windows","10.0","https://app.prolific.com/","en,en-US;q=0.9;q=0.9","678cde0c5b0dbb112da304ea","679147d2997803490f072fae","6791501762e86bf5e5a48d30","","null","<img  src='G_5.jpg' height='90'> <img  src='G_3.jpg' height='90'> <img   src='G_1.jpg' height='90'> <img src='G_9.jpg' height='90'> <img src='G_7.jpg' height='90'>","null","Learning example 1",""
"","","","","","html-button-response","119","237498","0.0-99.0","19","1","2025-01-22 20:08:26","6073afb29c8d06c5d8f22ae9f1371ff8","89.34.228.113","Mozilla/5.0 (Windows NT 10.0; WOW64) AppleWebKit/537.36 (KHTML, like Gecko) Chrome/129.0.0.0 Safari/537.36","WebKit","Chrome","129.0.0.0","Windows","10.0","https://app.prolific.com/","en,en-US;q=0.9;q=0.9","678cde0c5b0dbb112da304ea","679147d2997803490f072fae","6791501762e86bf5e5a48d30","","null","<img id='selected'  src='G_5.jpg' height='90'> <img  src='G_3.jpg' height='90'> <img   src='G_1.jpg' height='90'> <img src='G_9.jpg' height='90'> <img src='G_7.jpg' height='90'>","null","Learning example 1",""
"","","","","","html-button-response","120","237802","0.0-100.0","19","1","2025-01-22 20:08:26","6073afb29c8d06c5d8f22ae9f1371ff8","89.34.228.113","Mozilla/5.0 (Windows NT 10.0; WOW64) AppleWebKit/537.36 (KHTML, like Gecko) Chrome/129.0.0.0 Safari/537.36","WebKit","Chrome","129.0.0.0","Windows","10.0","https://app.prolific.com/","en,en-US;q=0.9;q=0.9","678cde0c5b0dbb112da304ea","679147d2997803490f072fae","6791501762e86bf5e5a48d30","","null","<img id='selected'  src='G_5.jpg' height='90'> <img id='selected'  src='G_3.jpg' height='90'> <img   src='G_1.jpg' height='90'> <img src='G_9.jpg' height='90'> <img src='G_7.jpg' height='90'>","null","Learning example 1",""
"","","","","","html-button-response","121","238107","0.0-101.0","19","1","2025-01-22 20:08:26","6073afb29c8d06c5d8f22ae9f1371ff8","89.34.228.113","Mozilla/5.0 (Windows NT 10.0; WOW64) AppleWebKit/537.36 (KHTML, like Gecko) Chrome/129.0.0.0 Safari/537.36","WebKit","Chrome","129.0.0.0","Windows","10.0","https://app.prolific.com/","en,en-US;q=0.9;q=0.9","678cde0c5b0dbb112da304ea","679147d2997803490f072fae","6791501762e86bf5e5a48d30","","null","<img id='swapped'  src='G_3.jpg' height='90'> <img id='swapped'  src='G_5.jpg' height='90'> <img   src='G_1.jpg' height='90'> <img src='G_9.jpg' height='90'> <img src='G_7.jpg' height='90'>","null","Learning example 1",""
"","","","","","html-button-response","122","240263","0.0-102.0-0.0-0.0","19","1","2025-01-22 20:08:26","6073afb29c8d06c5d8f22ae9f1371ff8","89.34.228.113","Mozilla/5.0 (Windows NT 10.0; WOW64) AppleWebKit/537.36 (KHTML, like Gecko) Chrome/129.0.0.0 Safari/537.36","WebKit","Chrome","129.0.0.0","Windows","10.0","https://app.prolific.com/","en,en-US;q=0.9;q=0.9","678cde0c5b0dbb112da304ea","679147d2997803490f072fae","6791501762e86bf5e5a48d30","","2152","<img id='swapped'  src='G_3.jpg' height='90'> <img id='swapped'  src='G_5.jpg' height='90'> <img   src='G_1.jpg' height='90'> <img src='G_9.jpg' height='90'> <img src='G_7.jpg' height='90'>","1","Learning example 1",""
"","","","","","html-button-response","123","240705","0.0-102.1-0.1-0.1","19","1","2025-01-22 20:08:26","6073afb29c8d06c5d8f22ae9f1371ff8","89.34.228.113","Mozilla/5.0 (Windows NT 10.0; WOW64) AppleWebKit/537.36 (KHTML, like Gecko) Chrome/129.0.0.0 Safari/537.36","WebKit","Chrome","129.0.0.0","Windows","10.0","https://app.prolific.com/","en,en-US;q=0.9;q=0.9","678cde0c5b0dbb112da304ea","679147d2997803490f072fae","6791501762e86bf5e5a48d30","","438","<img id='swapped'  src='G_3.jpg' height='90'> <img id='swapped'  src='G_5.jpg' height='90'> <img   src='G_1.jpg' height='90'> <img src='G_9.jpg' height='90'> <img src='G_7.jpg' height='90'>","0","Learning example 1",""
"","","","","","html-button-response","124","240913","0.0-103.0","19","1","2025-01-22 20:08:26","6073afb29c8d06c5d8f22ae9f1371ff8","89.34.228.113","Mozilla/5.0 (Windows NT 10.0; WOW64) AppleWebKit/537.36 (KHTML, like Gecko) Chrome/129.0.0.0 Safari/537.36","WebKit","Chrome","129.0.0.0","Windows","10.0","https://app.prolific.com/","en,en-US;q=0.9;q=0.9","678cde0c5b0dbb112da304ea","679147d2997803490f072fae","6791501762e86bf5e5a48d30","","null","<img   src='G_3.jpg' height='90'> <img   src='G_5.jpg' height='90'> <img   src='G_1.jpg' height='90'> <img src='G_9.jpg' height='90'> <img src='G_7.jpg' height='90'>","null","Learning example 1",""
"","","","","","html-button-response","125","241317","0.0-104.0","19","1","2025-01-22 20:08:26","6073afb29c8d06c5d8f22ae9f1371ff8","89.34.228.113","Mozilla/5.0 (Windows NT 10.0; WOW64) AppleWebKit/537.36 (KHTML, like Gecko) Chrome/129.0.0.0 Safari/537.36","WebKit","Chrome","129.0.0.0","Windows","10.0","https://app.prolific.com/","en,en-US;q=0.9;q=0.9","678cde0c5b0dbb112da304ea","679147d2997803490f072fae","6791501762e86bf5e5a48d30","","null","<img   src='G_3.jpg' height='90'> <img   src='G_5.jpg' height='90'> <img id='selected'   src='G_1.jpg' height='90'> <img src='G_9.jpg' height='90'> <img src='G_7.jpg' height='90'>","null","Learning example 1",""
"","","","","","html-button-response","126","241622","0.0-105.0","19","1","2025-01-22 20:08:26","6073afb29c8d06c5d8f22ae9f1371ff8","89.34.228.113","Mozilla/5.0 (Windows NT 10.0; WOW64) AppleWebKit/537.36 (KHTML, like Gecko) Chrome/129.0.0.0 Safari/537.36","WebKit","Chrome","129.0.0.0","Windows","10.0","https://app.prolific.com/","en,en-US;q=0.9;q=0.9","678cde0c5b0dbb112da304ea","679147d2997803490f072fae","6791501762e86bf5e5a48d30","","null","<img   src='G_3.jpg' height='90'> <img   src='G_5.jpg' height='90'> <img id='selected'   src='G_1.jpg' height='90'> <img id='selected' src='G_9.jpg' height='90'> <img src='G_7.jpg' height='90'>","null","Learning example 1",""
"","","","","","html-button-response","127","241927","0.0-106.0","19","1","2025-01-22 20:08:26","6073afb29c8d06c5d8f22ae9f1371ff8","89.34.228.113","Mozilla/5.0 (Windows NT 10.0; WOW64) AppleWebKit/537.36 (KHTML, like Gecko) Chrome/129.0.0.0 Safari/537.36","WebKit","Chrome","129.0.0.0","Windows","10.0","https://app.prolific.com/","en,en-US;q=0.9;q=0.9","678cde0c5b0dbb112da304ea","679147d2997803490f072fae","6791501762e86bf5e5a48d30","","null","<img   src='G_3.jpg' height='90'> <img   src='G_5.jpg' height='90'> <img id='swapped' src='G_9.jpg' height='90'> <img id='swapped'   src='G_1.jpg' height='90'> <img src='G_7.jpg' height='90'>","null","Learning example 1",""
"","","","","","html-button-response","128","243923","0.0-107.0-0.0-0.0","19","1","2025-01-22 20:08:26","6073afb29c8d06c5d8f22ae9f1371ff8","89.34.228.113","Mozilla/5.0 (Windows NT 10.0; WOW64) AppleWebKit/537.36 (KHTML, like Gecko) Chrome/129.0.0.0 Safari/537.36","WebKit","Chrome","129.0.0.0","Windows","10.0","https://app.prolific.com/","en,en-US;q=0.9;q=0.9","678cde0c5b0dbb112da304ea","679147d2997803490f072fae","6791501762e86bf5e5a48d30","","1993","<img   src='G_3.jpg' height='90'> <img   src='G_5.jpg' height='90'> <img id='swapped' src='G_9.jpg' height='90'> <img id='swapped'   src='G_1.jpg' height='90'> <img src='G_7.jpg' height='90'>","3","Learning example 1",""
"","","","","","html-button-response","129","244304","0.0-107.1-0.1-0.1","19","1","2025-01-22 20:08:26","6073afb29c8d06c5d8f22ae9f1371ff8","89.34.228.113","Mozilla/5.0 (Windows NT 10.0; WOW64) AppleWebKit/537.36 (KHTML, like Gecko) Chrome/129.0.0.0 Safari/537.36","WebKit","Chrome","129.0.0.0","Windows","10.0","https://app.prolific.com/","en,en-US;q=0.9;q=0.9","678cde0c5b0dbb112da304ea","679147d2997803490f072fae","6791501762e86bf5e5a48d30","","376","<img   src='G_3.jpg' height='90'> <img   src='G_5.jpg' height='90'> <img id='swapped' src='G_9.jpg' height='90'> <img id='swapped'   src='G_1.jpg' height='90'> <img src='G_7.jpg' height='90'>","2","Learning example 1",""
"","","","","","html-button-response","130","244511","0.0-108.0","19","1","2025-01-22 20:08:26","6073afb29c8d06c5d8f22ae9f1371ff8","89.34.228.113","Mozilla/5.0 (Windows NT 10.0; WOW64) AppleWebKit/537.36 (KHTML, like Gecko) Chrome/129.0.0.0 Safari/537.36","WebKit","Chrome","129.0.0.0","Windows","10.0","https://app.prolific.com/","en,en-US;q=0.9;q=0.9","678cde0c5b0dbb112da304ea","679147d2997803490f072fae","6791501762e86bf5e5a48d30","","null","<img   src='G_3.jpg' height='90'> <img   src='G_5.jpg' height='90'> <img  src='G_9.jpg' height='90'> <img    src='G_1.jpg' height='90'> <img src='G_7.jpg' height='90'>","null","Learning example 1",""
"","","","","","html-button-response","131","244917","0.0-109.0","19","1","2025-01-22 20:08:26","6073afb29c8d06c5d8f22ae9f1371ff8","89.34.228.113","Mozilla/5.0 (Windows NT 10.0; WOW64) AppleWebKit/537.36 (KHTML, like Gecko) Chrome/129.0.0.0 Safari/537.36","WebKit","Chrome","129.0.0.0","Windows","10.0","https://app.prolific.com/","en,en-US;q=0.9;q=0.9","678cde0c5b0dbb112da304ea","679147d2997803490f072fae","6791501762e86bf5e5a48d30","","null","<img   src='G_3.jpg' height='90'> <img id='selected'   src='G_5.jpg' height='90'> <img  src='G_9.jpg' height='90'> <img    src='G_1.jpg' height='90'> <img src='G_7.jpg' height='90'>","null","Learning example 1",""
"","","","","","html-button-response","132","245227","0.0-110.0","19","1","2025-01-22 20:08:26","6073afb29c8d06c5d8f22ae9f1371ff8","89.34.228.113","Mozilla/5.0 (Windows NT 10.0; WOW64) AppleWebKit/537.36 (KHTML, like Gecko) Chrome/129.0.0.0 Safari/537.36","WebKit","Chrome","129.0.0.0","Windows","10.0","https://app.prolific.com/","en,en-US;q=0.9;q=0.9","678cde0c5b0dbb112da304ea","679147d2997803490f072fae","6791501762e86bf5e5a48d30","","null","<img   src='G_3.jpg' height='90'> <img id='selected'   src='G_5.jpg' height='90'> <img id='selected'  src='G_9.jpg' height='90'> <img    src='G_1.jpg' height='90'> <img src='G_7.jpg' height='90'>","null","Learning example 1",""
"","","","","","html-button-response","133","245531","0.0-111.0","19","1","2025-01-22 20:08:26","6073afb29c8d06c5d8f22ae9f1371ff8","89.34.228.113","Mozilla/5.0 (Windows NT 10.0; WOW64) AppleWebKit/537.36 (KHTML, like Gecko) Chrome/129.0.0.0 Safari/537.36","WebKit","Chrome","129.0.0.0","Windows","10.0","https://app.prolific.com/","en,en-US;q=0.9;q=0.9","678cde0c5b0dbb112da304ea","679147d2997803490f072fae","6791501762e86bf5e5a48d30","","null","<img   src='G_3.jpg' height='90'> <img id='swapped'  src='G_9.jpg' height='90'> <img id='swapped'   src='G_5.jpg' height='90'> <img    src='G_1.jpg' height='90'> <img src='G_7.jpg' height='90'>","null","Learning example 1",""
"","","","","","html-button-response","134","246969","0.0-112.0-0.0-0.0","19","1","2025-01-22 20:08:26","6073afb29c8d06c5d8f22ae9f1371ff8","89.34.228.113","Mozilla/5.0 (Windows NT 10.0; WOW64) AppleWebKit/537.36 (KHTML, like Gecko) Chrome/129.0.0.0 Safari/537.36","WebKit","Chrome","129.0.0.0","Windows","10.0","https://app.prolific.com/","en,en-US;q=0.9;q=0.9","678cde0c5b0dbb112da304ea","679147d2997803490f072fae","6791501762e86bf5e5a48d30","","1434","<img   src='G_3.jpg' height='90'> <img id='swapped'  src='G_9.jpg' height='90'> <img id='swapped'   src='G_5.jpg' height='90'> <img    src='G_1.jpg' height='90'> <img src='G_7.jpg' height='90'>","2","Learning example 1",""
"","","","","","html-button-response","135","247439","0.0-112.1-0.1-0.1","19","1","2025-01-22 20:08:26","6073afb29c8d06c5d8f22ae9f1371ff8","89.34.228.113","Mozilla/5.0 (Windows NT 10.0; WOW64) AppleWebKit/537.36 (KHTML, like Gecko) Chrome/129.0.0.0 Safari/537.36","WebKit","Chrome","129.0.0.0","Windows","10.0","https://app.prolific.com/","en,en-US;q=0.9;q=0.9","678cde0c5b0dbb112da304ea","679147d2997803490f072fae","6791501762e86bf5e5a48d30","","465","<img   src='G_3.jpg' height='90'> <img id='swapped'  src='G_9.jpg' height='90'> <img id='swapped'   src='G_5.jpg' height='90'> <img    src='G_1.jpg' height='90'> <img src='G_7.jpg' height='90'>","1","Learning example 1",""
"","","","","","html-button-response","136","247646","0.0-113.0","19","1","2025-01-22 20:08:26","6073afb29c8d06c5d8f22ae9f1371ff8","89.34.228.113","Mozilla/5.0 (Windows NT 10.0; WOW64) AppleWebKit/537.36 (KHTML, like Gecko) Chrome/129.0.0.0 Safari/537.36","WebKit","Chrome","129.0.0.0","Windows","10.0","https://app.prolific.com/","en,en-US;q=0.9;q=0.9","678cde0c5b0dbb112da304ea","679147d2997803490f072fae","6791501762e86bf5e5a48d30","","null","<img   src='G_3.jpg' height='90'> <img   src='G_9.jpg' height='90'> <img    src='G_5.jpg' height='90'> <img    src='G_1.jpg' height='90'> <img src='G_7.jpg' height='90'>","null","Learning example 1",""
"","","","","","html-button-response","137","248052","0.0-114.0","19","1","2025-01-22 20:08:26","6073afb29c8d06c5d8f22ae9f1371ff8","89.34.228.113","Mozilla/5.0 (Windows NT 10.0; WOW64) AppleWebKit/537.36 (KHTML, like Gecko) Chrome/129.0.0.0 Safari/537.36","WebKit","Chrome","129.0.0.0","Windows","10.0","https://app.prolific.com/","en,en-US;q=0.9;q=0.9","678cde0c5b0dbb112da304ea","679147d2997803490f072fae","6791501762e86bf5e5a48d30","","null","<img id='selected'   src='G_3.jpg' height='90'> <img   src='G_9.jpg' height='90'> <img    src='G_5.jpg' height='90'> <img    src='G_1.jpg' height='90'> <img src='G_7.jpg' height='90'>","null","Learning example 1",""
"","","","","","html-button-response","138","248356","0.0-115.0","19","1","2025-01-22 20:08:26","6073afb29c8d06c5d8f22ae9f1371ff8","89.34.228.113","Mozilla/5.0 (Windows NT 10.0; WOW64) AppleWebKit/537.36 (KHTML, like Gecko) Chrome/129.0.0.0 Safari/537.36","WebKit","Chrome","129.0.0.0","Windows","10.0","https://app.prolific.com/","en,en-US;q=0.9;q=0.9","678cde0c5b0dbb112da304ea","679147d2997803490f072fae","6791501762e86bf5e5a48d30","","null","<img id='selected'   src='G_3.jpg' height='90'> <img id='selected'   src='G_9.jpg' height='90'> <img    src='G_5.jpg' height='90'> <img    src='G_1.jpg' height='90'> <img src='G_7.jpg' height='90'>","null","Learning example 1",""
"","","","","","html-button-response","139","248661","0.0-116.0","19","1","2025-01-22 20:08:26","6073afb29c8d06c5d8f22ae9f1371ff8","89.34.228.113","Mozilla/5.0 (Windows NT 10.0; WOW64) AppleWebKit/537.36 (KHTML, like Gecko) Chrome/129.0.0.0 Safari/537.36","WebKit","Chrome","129.0.0.0","Windows","10.0","https://app.prolific.com/","en,en-US;q=0.9;q=0.9","678cde0c5b0dbb112da304ea","679147d2997803490f072fae","6791501762e86bf5e5a48d30","","null","<img id='swapped'   src='G_9.jpg' height='90'> <img id='swapped'   src='G_3.jpg' height='90'> <img    src='G_5.jpg' height='90'> <img    src='G_1.jpg' height='90'> <img src='G_7.jpg' height='90'>","null","Learning example 1",""
"","","","","","html-button-response","140","250826","0.0-117.0-0.0-0.0","19","1","2025-01-22 20:08:26","6073afb29c8d06c5d8f22ae9f1371ff8","89.34.228.113","Mozilla/5.0 (Windows NT 10.0; WOW64) AppleWebKit/537.36 (KHTML, like Gecko) Chrome/129.0.0.0 Safari/537.36","WebKit","Chrome","129.0.0.0","Windows","10.0","https://app.prolific.com/","en,en-US;q=0.9;q=0.9","678cde0c5b0dbb112da304ea","679147d2997803490f072fae","6791501762e86bf5e5a48d30","","2157","<img id='swapped'   src='G_9.jpg' height='90'> <img id='swapped'   src='G_3.jpg' height='90'> <img    src='G_5.jpg' height='90'> <img    src='G_1.jpg' height='90'> <img src='G_7.jpg' height='90'>","0","Learning example 1",""
"","","","","","html-button-response","141","252802","0.0-117.1-0.1-0.1","19","1","2025-01-22 20:08:26","6073afb29c8d06c5d8f22ae9f1371ff8","89.34.228.113","Mozilla/5.0 (Windows NT 10.0; WOW64) AppleWebKit/537.36 (KHTML, like Gecko) Chrome/129.0.0.0 Safari/537.36","WebKit","Chrome","129.0.0.0","Windows","10.0","https://app.prolific.com/","en,en-US;q=0.9;q=0.9","678cde0c5b0dbb112da304ea","679147d2997803490f072fae","6791501762e86bf5e5a48d30","","1971","<img id='swapped'   src='G_9.jpg' height='90'> <img id='swapped'   src='G_3.jpg' height='90'> <img    src='G_5.jpg' height='90'> <img    src='G_1.jpg' height='90'> <img src='G_7.jpg' height='90'>","1","Learning example 1",""
"","","","","","html-button-response","142","253008","0.0-118.0","19","1","2025-01-22 20:08:26","6073afb29c8d06c5d8f22ae9f1371ff8","89.34.228.113","Mozilla/5.0 (Windows NT 10.0; WOW64) AppleWebKit/537.36 (KHTML, like Gecko) Chrome/129.0.0.0 Safari/537.36","WebKit","Chrome","129.0.0.0","Windows","10.0","https://app.prolific.com/","en,en-US;q=0.9;q=0.9","678cde0c5b0dbb112da304ea","679147d2997803490f072fae","6791501762e86bf5e5a48d30","","null","<img    src='G_9.jpg' height='90'> <img    src='G_3.jpg' height='90'> <img    src='G_5.jpg' height='90'> <img    src='G_1.jpg' height='90'> <img src='G_7.jpg' height='90'>","null","Learning example 1",""
"","","","","","html-button-response","143","253413","0.0-119.0","19","1","2025-01-22 20:08:26","6073afb29c8d06c5d8f22ae9f1371ff8","89.34.228.113","Mozilla/5.0 (Windows NT 10.0; WOW64) AppleWebKit/537.36 (KHTML, like Gecko) Chrome/129.0.0.0 Safari/537.36","WebKit","Chrome","129.0.0.0","Windows","10.0","https://app.prolific.com/","en,en-US;q=0.9;q=0.9","678cde0c5b0dbb112da304ea","679147d2997803490f072fae","6791501762e86bf5e5a48d30","","null","<img    src='G_9.jpg' height='90'> <img    src='G_3.jpg' height='90'> <img    src='G_5.jpg' height='90'> <img id='selected'    src='G_1.jpg' height='90'> <img src='G_7.jpg' height='90'>","null","Learning example 1",""
"","","","","","html-button-response","144","253718","0.0-120.0","19","1","2025-01-22 20:08:26","6073afb29c8d06c5d8f22ae9f1371ff8","89.34.228.113","Mozilla/5.0 (Windows NT 10.0; WOW64) AppleWebKit/537.36 (KHTML, like Gecko) Chrome/129.0.0.0 Safari/537.36","WebKit","Chrome","129.0.0.0","Windows","10.0","https://app.prolific.com/","en,en-US;q=0.9;q=0.9","678cde0c5b0dbb112da304ea","679147d2997803490f072fae","6791501762e86bf5e5a48d30","","null","<img    src='G_9.jpg' height='90'> <img    src='G_3.jpg' height='90'> <img    src='G_5.jpg' height='90'> <img id='selected'    src='G_1.jpg' height='90'> <img id='selected' src='G_7.jpg' height='90'>","null","Learning example 1",""
"","","","","","html-button-response","145","254022","0.0-121.0","19","1","2025-01-22 20:08:26","6073afb29c8d06c5d8f22ae9f1371ff8","89.34.228.113","Mozilla/5.0 (Windows NT 10.0; WOW64) AppleWebKit/537.36 (KHTML, like Gecko) Chrome/129.0.0.0 Safari/537.36","WebKit","Chrome","129.0.0.0","Windows","10.0","https://app.prolific.com/","en,en-US;q=0.9;q=0.9","678cde0c5b0dbb112da304ea","679147d2997803490f072fae","6791501762e86bf5e5a48d30","","null","<img    src='G_9.jpg' height='90'> <img    src='G_3.jpg' height='90'> <img    src='G_5.jpg' height='90'> <img id='swapped' src='G_7.jpg' height='90'> <img id='swapped'    src='G_1.jpg' height='90'>","null","Learning example 1",""
"","","","","","html-button-response","146","256299","0.0-122.0-0.0-0.0","19","1","2025-01-22 20:08:26","6073afb29c8d06c5d8f22ae9f1371ff8","89.34.228.113","Mozilla/5.0 (Windows NT 10.0; WOW64) AppleWebKit/537.36 (KHTML, like Gecko) Chrome/129.0.0.0 Safari/537.36","WebKit","Chrome","129.0.0.0","Windows","10.0","https://app.prolific.com/","en,en-US;q=0.9;q=0.9","678cde0c5b0dbb112da304ea","679147d2997803490f072fae","6791501762e86bf5e5a48d30","","2273","<img    src='G_9.jpg' height='90'> <img    src='G_3.jpg' height='90'> <img    src='G_5.jpg' height='90'> <img id='swapped' src='G_7.jpg' height='90'> <img id='swapped'    src='G_1.jpg' height='90'>","4","Learning example 1",""
"","","","","","html-button-response","147","258812","0.0-122.1-0.1-0.1","19","1","2025-01-22 20:08:26","6073afb29c8d06c5d8f22ae9f1371ff8","89.34.228.113","Mozilla/5.0 (Windows NT 10.0; WOW64) AppleWebKit/537.36 (KHTML, like Gecko) Chrome/129.0.0.0 Safari/537.36","WebKit","Chrome","129.0.0.0","Windows","10.0","https://app.prolific.com/","en,en-US;q=0.9;q=0.9","678cde0c5b0dbb112da304ea","679147d2997803490f072fae","6791501762e86bf5e5a48d30","","2508","<img    src='G_9.jpg' height='90'> <img    src='G_3.jpg' height='90'> <img    src='G_5.jpg' height='90'> <img id='swapped' src='G_7.jpg' height='90'> <img id='swapped'    src='G_1.jpg' height='90'>","4","Learning example 1",""
"","","","","","html-button-response","148","260084","0.0-122.2-0.2-0.2","19","1","2025-01-22 20:08:26","6073afb29c8d06c5d8f22ae9f1371ff8","89.34.228.113","Mozilla/5.0 (Windows NT 10.0; WOW64) AppleWebKit/537.36 (KHTML, like Gecko) Chrome/129.0.0.0 Safari/537.36","WebKit","Chrome","129.0.0.0","Windows","10.0","https://app.prolific.com/","en,en-US;q=0.9;q=0.9","678cde0c5b0dbb112da304ea","679147d2997803490f072fae","6791501762e86bf5e5a48d30","","1268","<img    src='G_9.jpg' height='90'> <img    src='G_3.jpg' height='90'> <img    src='G_5.jpg' height='90'> <img id='swapped' src='G_7.jpg' height='90'> <img id='swapped'    src='G_1.jpg' height='90'>","3","Learning example 1",""
"","","","","","html-button-response","149","260289","0.0-123.0","19","1","2025-01-22 20:08:26","6073afb29c8d06c5d8f22ae9f1371ff8","89.34.228.113","Mozilla/5.0 (Windows NT 10.0; WOW64) AppleWebKit/537.36 (KHTML, like Gecko) Chrome/129.0.0.0 Safari/537.36","WebKit","Chrome","129.0.0.0","Windows","10.0","https://app.prolific.com/","en,en-US;q=0.9;q=0.9","678cde0c5b0dbb112da304ea","679147d2997803490f072fae","6791501762e86bf5e5a48d30","","null","<img    src='G_9.jpg' height='90'> <img    src='G_3.jpg' height='90'> <img    src='G_5.jpg' height='90'> <img  src='G_7.jpg' height='90'> <img     src='G_1.jpg' height='90'>","null","Learning example 1",""
"","","","","","html-button-response","150","260694","0.0-124.0","19","1","2025-01-22 20:08:26","6073afb29c8d06c5d8f22ae9f1371ff8","89.34.228.113","Mozilla/5.0 (Windows NT 10.0; WOW64) AppleWebKit/537.36 (KHTML, like Gecko) Chrome/129.0.0.0 Safari/537.36","WebKit","Chrome","129.0.0.0","Windows","10.0","https://app.prolific.com/","en,en-US;q=0.9;q=0.9","678cde0c5b0dbb112da304ea","679147d2997803490f072fae","6791501762e86bf5e5a48d30","","null","<img    src='G_9.jpg' height='90'> <img    src='G_3.jpg' height='90'> <img id='selected'    src='G_5.jpg' height='90'> <img  src='G_7.jpg' height='90'> <img     src='G_1.jpg' height='90'>","null","Learning example 1",""
"","","","","","html-button-response","151","260999","0.0-125.0","19","1","2025-01-22 20:08:26","6073afb29c8d06c5d8f22ae9f1371ff8","89.34.228.113","Mozilla/5.0 (Windows NT 10.0; WOW64) AppleWebKit/537.36 (KHTML, like Gecko) Chrome/129.0.0.0 Safari/537.36","WebKit","Chrome","129.0.0.0","Windows","10.0","https://app.prolific.com/","en,en-US;q=0.9;q=0.9","678cde0c5b0dbb112da304ea","679147d2997803490f072fae","6791501762e86bf5e5a48d30","","null","<img    src='G_9.jpg' height='90'> <img    src='G_3.jpg' height='90'> <img id='selected'    src='G_5.jpg' height='90'> <img id='selected'  src='G_7.jpg' height='90'> <img     src='G_1.jpg' height='90'>","null","Learning example 1",""
"","","","","","html-button-response","152","261304","0.0-126.0","19","1","2025-01-22 20:08:26","6073afb29c8d06c5d8f22ae9f1371ff8","89.34.228.113","Mozilla/5.0 (Windows NT 10.0; WOW64) AppleWebKit/537.36 (KHTML, like Gecko) Chrome/129.0.0.0 Safari/537.36","WebKit","Chrome","129.0.0.0","Windows","10.0","https://app.prolific.com/","en,en-US;q=0.9;q=0.9","678cde0c5b0dbb112da304ea","679147d2997803490f072fae","6791501762e86bf5e5a48d30","","null","<img    src='G_9.jpg' height='90'> <img    src='G_3.jpg' height='90'> <img id='swapped'  src='G_7.jpg' height='90'> <img id='swapped'    src='G_5.jpg' height='90'> <img     src='G_1.jpg' height='90'>","null","Learning example 1",""
"","","","","","html-button-response","153","268759","0.0-127.0-0.0-0.0","19","1","2025-01-22 20:08:26","6073afb29c8d06c5d8f22ae9f1371ff8","89.34.228.113","Mozilla/5.0 (Windows NT 10.0; WOW64) AppleWebKit/537.36 (KHTML, like Gecko) Chrome/129.0.0.0 Safari/537.36","WebKit","Chrome","129.0.0.0","Windows","10.0","https://app.prolific.com/","en,en-US;q=0.9;q=0.9","678cde0c5b0dbb112da304ea","679147d2997803490f072fae","6791501762e86bf5e5a48d30","","7450","<img    src='G_9.jpg' height='90'> <img    src='G_3.jpg' height='90'> <img id='swapped'  src='G_7.jpg' height='90'> <img id='swapped'    src='G_5.jpg' height='90'> <img     src='G_1.jpg' height='90'>","2","Learning example 1",""
"","","","","","html-button-response","154","270055","0.0-127.1-0.1-0.1","19","1","2025-01-22 20:08:26","6073afb29c8d06c5d8f22ae9f1371ff8","89.34.228.113","Mozilla/5.0 (Windows NT 10.0; WOW64) AppleWebKit/537.36 (KHTML, like Gecko) Chrome/129.0.0.0 Safari/537.36","WebKit","Chrome","129.0.0.0","Windows","10.0","https://app.prolific.com/","en,en-US;q=0.9;q=0.9","678cde0c5b0dbb112da304ea","679147d2997803490f072fae","6791501762e86bf5e5a48d30","","1289","<img    src='G_9.jpg' height='90'> <img    src='G_3.jpg' height='90'> <img id='swapped'  src='G_7.jpg' height='90'> <img id='swapped'    src='G_5.jpg' height='90'> <img     src='G_1.jpg' height='90'>","2","Learning example 1",""
"","","","","","html-button-response","155","270783","0.0-127.2-0.2-0.2","19","1","2025-01-22 20:08:26","6073afb29c8d06c5d8f22ae9f1371ff8","89.34.228.113","Mozilla/5.0 (Windows NT 10.0; WOW64) AppleWebKit/537.36 (KHTML, like Gecko) Chrome/129.0.0.0 Safari/537.36","WebKit","Chrome","129.0.0.0","Windows","10.0","https://app.prolific.com/","en,en-US;q=0.9;q=0.9","678cde0c5b0dbb112da304ea","679147d2997803490f072fae","6791501762e86bf5e5a48d30","","724","<img    src='G_9.jpg' height='90'> <img    src='G_3.jpg' height='90'> <img id='swapped'  src='G_7.jpg' height='90'> <img id='swapped'    src='G_5.jpg' height='90'> <img     src='G_1.jpg' height='90'>","3","Learning example 1",""
