"success","timeout","failed_images","failed_audio","failed_video","trial_type","trial_index","time_elapsed","internal_node_id","run_id","condition","recorded_at","source_code_version","ip","user_agent","device","browser","browser_version","platform","platform_version","referer","accept_language","PROLIFIC_PID","STUDY_ID","SESSION_ID","view_history","rt","stimulus","response","phase","question_order"
"true","false","[]","[]","[]","preload","0","668","0.0-0.0","20","1","2025-01-22 20:08:36","6073afb29c8d06c5d8f22ae9f1371ff8","130.91.127.46","Mozilla/5.0 (Windows NT 10.0; Win64; x64) AppleWebKit/537.36 (KHTML, like Gecko) Chrome/132.0.0.0 Safari/537.36","WebKit","Chrome","132.0.0.0","Windows","10.0","https://app.prolific.com/","en-US,en;q=0.9","5d13a30cc4806c00191ecd36","679147d2997803490f072fae","6791502e65484f3e439730c2","","","","","",""
"","","","","","instructions","1","16332","0.0-1.0","20","1","2025-01-22 20:08:36","6073afb29c8d06c5d8f22ae9f1371ff8","130.91.127.46","Mozilla/5.0 (Windows NT 10.0; Win64; x64) AppleWebKit/537.36 (KHTML, like Gecko) Chrome/132.0.0.0 Safari/537.36","WebKit","Chrome","132.0.0.0","Windows","10.0","https://app.prolific.com/","en-US,en;q=0.9","5d13a30cc4806c00191ecd36","679147d2997803490f072fae","6791502e65484f3e439730c2","[{""page_index"":0,""viewing_time"":15663}]","15663","","","",""
"","","","","","html-keyboard-response","2","16835","0.0-2.0","20","1","2025-01-22 20:08:36","6073afb29c8d06c5d8f22ae9f1371ff8","130.91.127.46","Mozilla/5.0 (Windows NT 10.0; Win64; x64) AppleWebKit/537.36 (KHTML, like Gecko) Chrome/132.0.0.0 Safari/537.36","WebKit","Chrome","132.0.0.0","Windows","10.0","https://app.prolific.com/","en-US,en;q=0.9","5d13a30cc4806c00191ecd36","679147d2997803490f072fae","6791502e65484f3e439730c2","","null","<p> + <p/>","null","",""
"","","","","","instructions","3","60549","0.0-3.0","20","1","2025-01-22 20:08:36","6073afb29c8d06c5d8f22ae9f1371ff8","130.91.127.46","Mozilla/5.0 (Windows NT 10.0; Win64; x64) AppleWebKit/537.36 (KHTML, like Gecko) Chrome/132.0.0.0 Safari/537.36","WebKit","Chrome","132.0.0.0","Windows","10.0","https://app.prolific.com/","en-US,en;q=0.9","5d13a30cc4806c00191ecd36","679147d2997803490f072fae","6791502e65484f3e439730c2","[{""page_index"":0,""viewing_time"":2490},{""page_index"":1,""viewing_time"":19628},{""page_index"":2,""viewing_time"":9755},{""page_index"":3,""viewing_time"":4302},{""page_index"":4,""viewing_time"":7538}]","43713","","","",""
"","","","","","html-button-response","4","79076","0.0-4.0-0.0-0.0","20","1","2025-01-22 20:08:36","6073afb29c8d06c5d8f22ae9f1371ff8","130.91.127.46","Mozilla/5.0 (Windows NT 10.0; Win64; x64) AppleWebKit/537.36 (KHTML, like Gecko) Chrome/132.0.0.0 Safari/537.36","WebKit","Chrome","132.0.0.0","Windows","10.0","https://app.prolific.com/","en-US,en;q=0.9","5d13a30cc4806c00191ecd36","679147d2997803490f072fae","6791502e65484f3e439730c2","","18525","","1","Intro Trial",""
"","","","","","html-button-response","5","88328","0.0-4.1-0.1-0.1","20","1","2025-01-22 20:08:36","6073afb29c8d06c5d8f22ae9f1371ff8","130.91.127.46","Mozilla/5.0 (Windows NT 10.0; Win64; x64) AppleWebKit/537.36 (KHTML, like Gecko) Chrome/132.0.0.0 Safari/537.36","WebKit","Chrome","132.0.0.0","Windows","10.0","https://app.prolific.com/","en-US,en;q=0.9","5d13a30cc4806c00191ecd36","679147d2997803490f072fae","6791502e65484f3e439730c2","","9249","","0","Intro Trial",""
"","","","","","html-button-response","6","93853","0.0-4.2-0.2-0.2","20","1","2025-01-22 20:08:36","6073afb29c8d06c5d8f22ae9f1371ff8","130.91.127.46","Mozilla/5.0 (Windows NT 10.0; Win64; x64) AppleWebKit/537.36 (KHTML, like Gecko) Chrome/132.0.0.0 Safari/537.36","WebKit","Chrome","132.0.0.0","Windows","10.0","https://app.prolific.com/","en-US,en;q=0.9","5d13a30cc4806c00191ecd36","679147d2997803490f072fae","6791502e65484f3e439730c2","","5520","","2","Intro Trial",""
"","","","","","html-button-response","7","94813","0.0-4.3-0.3-0.3","20","1","2025-01-22 20:08:36","6073afb29c8d06c5d8f22ae9f1371ff8","130.91.127.46","Mozilla/5.0 (Windows NT 10.0; Win64; x64) AppleWebKit/537.36 (KHTML, like Gecko) Chrome/132.0.0.0 Safari/537.36","WebKit","Chrome","132.0.0.0","Windows","10.0","https://app.prolific.com/","en-US,en;q=0.9","5d13a30cc4806c00191ecd36","679147d2997803490f072fae","6791502e65484f3e439730c2","","957","","0","Intro Trial",""
"","","","","","html-button-response","8","95803","0.0-4.4-0.4-0.4","20","1","2025-01-22 20:08:36","6073afb29c8d06c5d8f22ae9f1371ff8","130.91.127.46","Mozilla/5.0 (Windows NT 10.0; Win64; x64) AppleWebKit/537.36 (KHTML, like Gecko) Chrome/132.0.0.0 Safari/537.36","WebKit","Chrome","132.0.0.0","Windows","10.0","https://app.prolific.com/","en-US,en;q=0.9","5d13a30cc4806c00191ecd36","679147d2997803490f072fae","6791502e65484f3e439730c2","","988","","2","Intro Trial",""
"","","","","","html-button-response","9","96408","0.0-4.5-0.5-0.5","20","1","2025-01-22 20:08:36","6073afb29c8d06c5d8f22ae9f1371ff8","130.91.127.46","Mozilla/5.0 (Windows NT 10.0; Win64; x64) AppleWebKit/537.36 (KHTML, like Gecko) Chrome/132.0.0.0 Safari/537.36","WebKit","Chrome","132.0.0.0","Windows","10.0","https://app.prolific.com/","en-US,en;q=0.9","5d13a30cc4806c00191ecd36","679147d2997803490f072fae","6791502e65484f3e439730c2","","602","","4","Intro Trial",""
"","","","","","html-button-response","10","98509","0.0-4.6-0.6-0.6","20","1","2025-01-22 20:08:36","6073afb29c8d06c5d8f22ae9f1371ff8","130.91.127.46","Mozilla/5.0 (Windows NT 10.0; Win64; x64) AppleWebKit/537.36 (KHTML, like Gecko) Chrome/132.0.0.0 Safari/537.36","WebKit","Chrome","132.0.0.0","Windows","10.0","https://app.prolific.com/","en-US,en;q=0.9","5d13a30cc4806c00191ecd36","679147d2997803490f072fae","6791502e65484f3e439730c2","","2099","","2","Intro Trial",""
"","","","","","html-button-response","11","98895","0.0-4.7-0.7-0.7","20","1","2025-01-22 20:08:36","6073afb29c8d06c5d8f22ae9f1371ff8","130.91.127.46","Mozilla/5.0 (Windows NT 10.0; Win64; x64) AppleWebKit/537.36 (KHTML, like Gecko) Chrome/132.0.0.0 Safari/537.36","WebKit","Chrome","132.0.0.0","Windows","10.0","https://app.prolific.com/","en-US,en;q=0.9","5d13a30cc4806c00191ecd36","679147d2997803490f072fae","6791502e65484f3e439730c2","","384","","3","Intro Trial",""
"","","","","","html-button-response","12","100549","0.0-4.8-0.8-0.8","20","1","2025-01-22 20:08:36","6073afb29c8d06c5d8f22ae9f1371ff8","130.91.127.46","Mozilla/5.0 (Windows NT 10.0; Win64; x64) AppleWebKit/537.36 (KHTML, like Gecko) Chrome/132.0.0.0 Safari/537.36","WebKit","Chrome","132.0.0.0","Windows","10.0","https://app.prolific.com/","en-US,en;q=0.9","5d13a30cc4806c00191ecd36","679147d2997803490f072fae","6791502e65484f3e439730c2","","1651","","2","Intro Trial",""
"","","","","","html-button-response","13","101000","0.0-4.9-0.9-0.9","20","1","2025-01-22 20:08:36","6073afb29c8d06c5d8f22ae9f1371ff8","130.91.127.46","Mozilla/5.0 (Windows NT 10.0; Win64; x64) AppleWebKit/537.36 (KHTML, like Gecko) Chrome/132.0.0.0 Safari/537.36","WebKit","Chrome","132.0.0.0","Windows","10.0","https://app.prolific.com/","en-US,en;q=0.9","5d13a30cc4806c00191ecd36","679147d2997803490f072fae","6791502e65484f3e439730c2","","448","","3","Intro Trial",""
"","","","","","html-button-response","14","101833","0.0-4.10-0.10-0.10","20","1","2025-01-22 20:08:36","6073afb29c8d06c5d8f22ae9f1371ff8","130.91.127.46","Mozilla/5.0 (Windows NT 10.0; Win64; x64) AppleWebKit/537.36 (KHTML, like Gecko) Chrome/132.0.0.0 Safari/537.36","WebKit","Chrome","132.0.0.0","Windows","10.0","https://app.prolific.com/","en-US,en;q=0.9","5d13a30cc4806c00191ecd36","679147d2997803490f072fae","6791502e65484f3e439730c2","","829","","1","Intro Trial",""
"","","","","","html-button-response","15","102284","0.0-4.11-0.11-0.11","20","1","2025-01-22 20:08:36","6073afb29c8d06c5d8f22ae9f1371ff8","130.91.127.46","Mozilla/5.0 (Windows NT 10.0; Win64; x64) AppleWebKit/537.36 (KHTML, like Gecko) Chrome/132.0.0.0 Safari/537.36","WebKit","Chrome","132.0.0.0","Windows","10.0","https://app.prolific.com/","en-US,en;q=0.9","5d13a30cc4806c00191ecd36","679147d2997803490f072fae","6791502e65484f3e439730c2","","448","","3","Intro Trial",""
"","","","","","html-button-response","16","103192","0.0-4.12-0.12-0.12","20","1","2025-01-22 20:08:36","6073afb29c8d06c5d8f22ae9f1371ff8","130.91.127.46","Mozilla/5.0 (Windows NT 10.0; Win64; x64) AppleWebKit/537.36 (KHTML, like Gecko) Chrome/132.0.0.0 Safari/537.36","WebKit","Chrome","132.0.0.0","Windows","10.0","https://app.prolific.com/","en-US,en;q=0.9","5d13a30cc4806c00191ecd36","679147d2997803490f072fae","6791502e65484f3e439730c2","","905","","0","Intro Trial",""
"","","","","","html-button-response","17","103707","0.0-4.13-0.13-0.13","20","1","2025-01-22 20:08:36","6073afb29c8d06c5d8f22ae9f1371ff8","130.91.127.46","Mozilla/5.0 (Windows NT 10.0; Win64; x64) AppleWebKit/537.36 (KHTML, like Gecko) Chrome/132.0.0.0 Safari/537.36","WebKit","Chrome","132.0.0.0","Windows","10.0","https://app.prolific.com/","en-US,en;q=0.9","5d13a30cc4806c00191ecd36","679147d2997803490f072fae","6791502e65484f3e439730c2","","513","","3","Intro Trial",""
"","","","","","html-button-response","18","104231","0.0-4.14-0.14-0.14","20","1","2025-01-22 20:08:36","6073afb29c8d06c5d8f22ae9f1371ff8","130.91.127.46","Mozilla/5.0 (Windows NT 10.0; Win64; x64) AppleWebKit/537.36 (KHTML, like Gecko) Chrome/132.0.0.0 Safari/537.36","WebKit","Chrome","132.0.0.0","Windows","10.0","https://app.prolific.com/","en-US,en;q=0.9","5d13a30cc4806c00191ecd36","679147d2997803490f072fae","6791502e65484f3e439730c2","","521","","2","Intro Trial",""
"","","","","","html-button-response","19","105027","0.0-4.15-0.15-0.15","20","1","2025-01-22 20:08:36","6073afb29c8d06c5d8f22ae9f1371ff8","130.91.127.46","Mozilla/5.0 (Windows NT 10.0; Win64; x64) AppleWebKit/537.36 (KHTML, like Gecko) Chrome/132.0.0.0 Safari/537.36","WebKit","Chrome","132.0.0.0","Windows","10.0","https://app.prolific.com/","en-US,en;q=0.9","5d13a30cc4806c00191ecd36","679147d2997803490f072fae","6791502e65484f3e439730c2","","794","","0","Intro Trial",""
"","","","","","html-button-response","20","106260","0.0-4.16-0.16-0.16","20","1","2025-01-22 20:08:36","6073afb29c8d06c5d8f22ae9f1371ff8","130.91.127.46","Mozilla/5.0 (Windows NT 10.0; Win64; x64) AppleWebKit/537.36 (KHTML, like Gecko) Chrome/132.0.0.0 Safari/537.36","WebKit","Chrome","132.0.0.0","Windows","10.0","https://app.prolific.com/","en-US,en;q=0.9","5d13a30cc4806c00191ecd36","679147d2997803490f072fae","6791502e65484f3e439730c2","","1231","","5","Intro Trial",""
"","","","","","html-keyboard-response","21","115464","0.0-5.0","20","1","2025-01-22 20:08:36","6073afb29c8d06c5d8f22ae9f1371ff8","130.91.127.46","Mozilla/5.0 (Windows NT 10.0; Win64; x64) AppleWebKit/537.36 (KHTML, like Gecko) Chrome/132.0.0.0 Safari/537.36","WebKit","Chrome","132.0.0.0","Windows","10.0","https://app.prolific.com/","en-US,en;q=0.9","5d13a30cc4806c00191ecd36","679147d2997803490f072fae","6791502e65484f3e439730c2","","9202","[""You sorted incorrectly by using the balance 8 times. <br><br> <img src='G_5.jpg' height='90'><img src='G_1.jpg' height='90'><img src='G_2.jpg' height='90'><img src='G_4.jpg' height='90'><img src='G_3.jpg' height='90'><br><br> Your final order is 1,4,2,5,3<br><br><br>Omgne Sort in this game will allow you to sort correctly by using the balance 8 times. Press Enter to learn it!""]","enter","",""
"","","","","","html-keyboard-response","22","121427","0.0-6.0","20","1","2025-01-22 20:08:36","6073afb29c8d06c5d8f22ae9f1371ff8","130.91.127.46","Mozilla/5.0 (Windows NT 10.0; Win64; x64) AppleWebKit/537.36 (KHTML, like Gecko) Chrome/132.0.0.0 Safari/537.36","WebKit","Chrome","132.0.0.0","Windows","10.0","https://app.prolific.com/","en-US,en;q=0.9","5d13a30cc4806c00191ecd36","679147d2997803490f072fae","6791502e65484f3e439730c2","","5961","<p>Welcome to the learning phase! <br><br> You will learn by four examples. The following learning trials will not be used to calculate your performance. <br><br> Press Enter to continue.<p/>","enter","",""
"","","","","","html-keyboard-response","23","128604","0.0-7.0","20","1","2025-01-22 20:08:36","6073afb29c8d06c5d8f22ae9f1371ff8","130.91.127.46","Mozilla/5.0 (Windows NT 10.0; Win64; x64) AppleWebKit/537.36 (KHTML, like Gecko) Chrome/132.0.0.0 Safari/537.36","WebKit","Chrome","132.0.0.0","Windows","10.0","https://app.prolific.com/","en-US,en;q=0.9","5d13a30cc4806c00191ecd36","679147d2997803490f072fae","6791502e65484f3e439730c2","","7176","[""Example 1<br><br>You will watch Omnge Sort in action. Try to identify any patterns in the comparisons made by this method. <br><br>Press Enter to continue.""]","enter","",""
"","","","","","html-keyboard-response","24","129107","0.0-8.0","20","1","2025-01-22 20:08:36","6073afb29c8d06c5d8f22ae9f1371ff8","130.91.127.46","Mozilla/5.0 (Windows NT 10.0; Win64; x64) AppleWebKit/537.36 (KHTML, like Gecko) Chrome/132.0.0.0 Safari/537.36","WebKit","Chrome","132.0.0.0","Windows","10.0","https://app.prolific.com/","en-US,en;q=0.9","5d13a30cc4806c00191ecd36","679147d2997803490f072fae","6791502e65484f3e439730c2","","null","<img id='selected' src='G_7.jpg' height='90'> <img src='G_1.jpg' height='90'> <img src='G_9.jpg' height='90'> <img src='G_5.jpg' height='90'> <img src='G_3.jpg' height='90'>","null","Animation0",""
"","","","","","html-keyboard-response","25","129609","0.0-9.0","20","1","2025-01-22 20:08:36","6073afb29c8d06c5d8f22ae9f1371ff8","130.91.127.46","Mozilla/5.0 (Windows NT 10.0; Win64; x64) AppleWebKit/537.36 (KHTML, like Gecko) Chrome/132.0.0.0 Safari/537.36","WebKit","Chrome","132.0.0.0","Windows","10.0","https://app.prolific.com/","en-US,en;q=0.9","5d13a30cc4806c00191ecd36","679147d2997803490f072fae","6791502e65484f3e439730c2","","null","<img id='selected' src='G_7.jpg' height='90'> <img id='selected' src='G_1.jpg' height='90'> <img src='G_9.jpg' height='90'> <img src='G_5.jpg' height='90'> <img src='G_3.jpg' height='90'>","null","Animation0",""
"","","","","","html-keyboard-response","26","130111","0.0-10.0","20","1","2025-01-22 20:08:36","6073afb29c8d06c5d8f22ae9f1371ff8","130.91.127.46","Mozilla/5.0 (Windows NT 10.0; Win64; x64) AppleWebKit/537.36 (KHTML, like Gecko) Chrome/132.0.0.0 Safari/537.36","WebKit","Chrome","132.0.0.0","Windows","10.0","https://app.prolific.com/","en-US,en;q=0.9","5d13a30cc4806c00191ecd36","679147d2997803490f072fae","6791502e65484f3e439730c2","","null","<img id='swapped' src='G_1.jpg' height='90'> <img id='swapped' src='G_7.jpg' height='90'> <img src='G_9.jpg' height='90'> <img src='G_5.jpg' height='90'> <img src='G_3.jpg' height='90'>","null","Animation0",""
"","","","","","html-keyboard-response","27","130420","0.0-11.0","20","1","2025-01-22 20:08:36","6073afb29c8d06c5d8f22ae9f1371ff8","130.91.127.46","Mozilla/5.0 (Windows NT 10.0; Win64; x64) AppleWebKit/537.36 (KHTML, like Gecko) Chrome/132.0.0.0 Safari/537.36","WebKit","Chrome","132.0.0.0","Windows","10.0","https://app.prolific.com/","en-US,en;q=0.9","5d13a30cc4806c00191ecd36","679147d2997803490f072fae","6791502e65484f3e439730c2","","null","<img  src='G_1.jpg' height='90'> <img  src='G_7.jpg' height='90'> <img src='G_9.jpg' height='90'> <img src='G_5.jpg' height='90'> <img src='G_3.jpg' height='90'>","null","Animation0",""
"","","","","","html-keyboard-response","28","130927","0.0-12.0","20","1","2025-01-22 20:08:36","6073afb29c8d06c5d8f22ae9f1371ff8","130.91.127.46","Mozilla/5.0 (Windows NT 10.0; Win64; x64) AppleWebKit/537.36 (KHTML, like Gecko) Chrome/132.0.0.0 Safari/537.36","WebKit","Chrome","132.0.0.0","Windows","10.0","https://app.prolific.com/","en-US,en;q=0.9","5d13a30cc4806c00191ecd36","679147d2997803490f072fae","6791502e65484f3e439730c2","","null","<img  src='G_1.jpg' height='90'> <img id='selected'  src='G_7.jpg' height='90'> <img src='G_9.jpg' height='90'> <img src='G_5.jpg' height='90'> <img src='G_3.jpg' height='90'>","null","Animation0",""
"","","","","","html-keyboard-response","29","131433","0.0-13.0","20","1","2025-01-22 20:08:36","6073afb29c8d06c5d8f22ae9f1371ff8","130.91.127.46","Mozilla/5.0 (Windows NT 10.0; Win64; x64) AppleWebKit/537.36 (KHTML, like Gecko) Chrome/132.0.0.0 Safari/537.36","WebKit","Chrome","132.0.0.0","Windows","10.0","https://app.prolific.com/","en-US,en;q=0.9","5d13a30cc4806c00191ecd36","679147d2997803490f072fae","6791502e65484f3e439730c2","","null","<img  src='G_1.jpg' height='90'> <img id='selected'  src='G_7.jpg' height='90'> <img id='selected' src='G_9.jpg' height='90'> <img src='G_5.jpg' height='90'> <img src='G_3.jpg' height='90'>","null","Animation0",""
"","","","","","html-keyboard-response","30","131948","0.0-14.0","20","1","2025-01-22 20:08:36","6073afb29c8d06c5d8f22ae9f1371ff8","130.91.127.46","Mozilla/5.0 (Windows NT 10.0; Win64; x64) AppleWebKit/537.36 (KHTML, like Gecko) Chrome/132.0.0.0 Safari/537.36","WebKit","Chrome","132.0.0.0","Windows","10.0","https://app.prolific.com/","en-US,en;q=0.9","5d13a30cc4806c00191ecd36","679147d2997803490f072fae","6791502e65484f3e439730c2","","null","<img  src='G_1.jpg' height='90'> <img id='selected'  src='G_7.jpg' height='90'> <img id='selected' src='G_9.jpg' height='90'> <img src='G_5.jpg' height='90'> <img src='G_3.jpg' height='90'>","null","Animation0",""
"","","","","","html-keyboard-response","31","132259","0.0-15.0","20","1","2025-01-22 20:08:36","6073afb29c8d06c5d8f22ae9f1371ff8","130.91.127.46","Mozilla/5.0 (Windows NT 10.0; Win64; x64) AppleWebKit/537.36 (KHTML, like Gecko) Chrome/132.0.0.0 Safari/537.36","WebKit","Chrome","132.0.0.0","Windows","10.0","https://app.prolific.com/","en-US,en;q=0.9","5d13a30cc4806c00191ecd36","679147d2997803490f072fae","6791502e65484f3e439730c2","","null","<img  src='G_1.jpg' height='90'> <img   src='G_7.jpg' height='90'> <img  src='G_9.jpg' height='90'> <img src='G_5.jpg' height='90'> <img src='G_3.jpg' height='90'>","null","Animation0",""
"","","","","","html-keyboard-response","32","132763","0.0-16.0","20","1","2025-01-22 20:08:36","6073afb29c8d06c5d8f22ae9f1371ff8","130.91.127.46","Mozilla/5.0 (Windows NT 10.0; Win64; x64) AppleWebKit/537.36 (KHTML, like Gecko) Chrome/132.0.0.0 Safari/537.36","WebKit","Chrome","132.0.0.0","Windows","10.0","https://app.prolific.com/","en-US,en;q=0.9","5d13a30cc4806c00191ecd36","679147d2997803490f072fae","6791502e65484f3e439730c2","","null","<img  src='G_1.jpg' height='90'> <img   src='G_7.jpg' height='90'> <img id='selected'  src='G_9.jpg' height='90'> <img src='G_5.jpg' height='90'> <img src='G_3.jpg' height='90'>","null","Animation0",""
"","","","","","html-keyboard-response","33","133279","0.0-17.0","20","1","2025-01-22 20:08:36","6073afb29c8d06c5d8f22ae9f1371ff8","130.91.127.46","Mozilla/5.0 (Windows NT 10.0; Win64; x64) AppleWebKit/537.36 (KHTML, like Gecko) Chrome/132.0.0.0 Safari/537.36","WebKit","Chrome","132.0.0.0","Windows","10.0","https://app.prolific.com/","en-US,en;q=0.9","5d13a30cc4806c00191ecd36","679147d2997803490f072fae","6791502e65484f3e439730c2","","null","<img  src='G_1.jpg' height='90'> <img   src='G_7.jpg' height='90'> <img id='selected'  src='G_9.jpg' height='90'> <img id='selected' src='G_5.jpg' height='90'> <img src='G_3.jpg' height='90'>","null","Animation0",""
"","","","","","html-keyboard-response","34","133791","0.0-18.0","20","1","2025-01-22 20:08:36","6073afb29c8d06c5d8f22ae9f1371ff8","130.91.127.46","Mozilla/5.0 (Windows NT 10.0; Win64; x64) AppleWebKit/537.36 (KHTML, like Gecko) Chrome/132.0.0.0 Safari/537.36","WebKit","Chrome","132.0.0.0","Windows","10.0","https://app.prolific.com/","en-US,en;q=0.9","5d13a30cc4806c00191ecd36","679147d2997803490f072fae","6791502e65484f3e439730c2","","null","<img  src='G_1.jpg' height='90'> <img   src='G_7.jpg' height='90'> <img id='selected'  src='G_9.jpg' height='90'> <img id='selected' src='G_5.jpg' height='90'> <img src='G_3.jpg' height='90'>","null","Animation0",""
"","","","","","html-keyboard-response","35","134103","0.0-19.0","20","1","2025-01-22 20:08:36","6073afb29c8d06c5d8f22ae9f1371ff8","130.91.127.46","Mozilla/5.0 (Windows NT 10.0; Win64; x64) AppleWebKit/537.36 (KHTML, like Gecko) Chrome/132.0.0.0 Safari/537.36","WebKit","Chrome","132.0.0.0","Windows","10.0","https://app.prolific.com/","en-US,en;q=0.9","5d13a30cc4806c00191ecd36","679147d2997803490f072fae","6791502e65484f3e439730c2","","null","<img  src='G_1.jpg' height='90'> <img   src='G_7.jpg' height='90'> <img   src='G_9.jpg' height='90'> <img  src='G_5.jpg' height='90'> <img src='G_3.jpg' height='90'>","null","Animation0",""
"","","","","","html-keyboard-response","36","134609","0.0-20.0","20","1","2025-01-22 20:08:36","6073afb29c8d06c5d8f22ae9f1371ff8","130.91.127.46","Mozilla/5.0 (Windows NT 10.0; Win64; x64) AppleWebKit/537.36 (KHTML, like Gecko) Chrome/132.0.0.0 Safari/537.36","WebKit","Chrome","132.0.0.0","Windows","10.0","https://app.prolific.com/","en-US,en;q=0.9","5d13a30cc4806c00191ecd36","679147d2997803490f072fae","6791502e65484f3e439730c2","","null","<img  src='G_1.jpg' height='90'> <img   src='G_7.jpg' height='90'> <img   src='G_9.jpg' height='90'> <img id='selected'  src='G_5.jpg' height='90'> <img src='G_3.jpg' height='90'>","null","Animation0",""
"","","","","","html-keyboard-response","37","135123","0.0-21.0","20","1","2025-01-22 20:08:36","6073afb29c8d06c5d8f22ae9f1371ff8","130.91.127.46","Mozilla/5.0 (Windows NT 10.0; Win64; x64) AppleWebKit/537.36 (KHTML, like Gecko) Chrome/132.0.0.0 Safari/537.36","WebKit","Chrome","132.0.0.0","Windows","10.0","https://app.prolific.com/","en-US,en;q=0.9","5d13a30cc4806c00191ecd36","679147d2997803490f072fae","6791502e65484f3e439730c2","","null","<img  src='G_1.jpg' height='90'> <img   src='G_7.jpg' height='90'> <img   src='G_9.jpg' height='90'> <img id='selected'  src='G_5.jpg' height='90'> <img id='selected' src='G_3.jpg' height='90'>","null","Animation0",""
"","","","","","html-keyboard-response","38","135639","0.0-22.0","20","1","2025-01-22 20:08:36","6073afb29c8d06c5d8f22ae9f1371ff8","130.91.127.46","Mozilla/5.0 (Windows NT 10.0; Win64; x64) AppleWebKit/537.36 (KHTML, like Gecko) Chrome/132.0.0.0 Safari/537.36","WebKit","Chrome","132.0.0.0","Windows","10.0","https://app.prolific.com/","en-US,en;q=0.9","5d13a30cc4806c00191ecd36","679147d2997803490f072fae","6791502e65484f3e439730c2","","null","<img  src='G_1.jpg' height='90'> <img   src='G_7.jpg' height='90'> <img   src='G_9.jpg' height='90'> <img id='selected'  src='G_5.jpg' height='90'> <img id='selected' src='G_3.jpg' height='90'>","null","Animation0",""
"","","","","","html-keyboard-response","39","135951","0.0-23.0","20","1","2025-01-22 20:08:36","6073afb29c8d06c5d8f22ae9f1371ff8","130.91.127.46","Mozilla/5.0 (Windows NT 10.0; Win64; x64) AppleWebKit/537.36 (KHTML, like Gecko) Chrome/132.0.0.0 Safari/537.36","WebKit","Chrome","132.0.0.0","Windows","10.0","https://app.prolific.com/","en-US,en;q=0.9","5d13a30cc4806c00191ecd36","679147d2997803490f072fae","6791502e65484f3e439730c2","","null","<img  src='G_1.jpg' height='90'> <img   src='G_7.jpg' height='90'> <img   src='G_9.jpg' height='90'> <img   src='G_5.jpg' height='90'> <img  src='G_3.jpg' height='90'>","null","Animation0",""
"","","","","","html-keyboard-response","40","140195","0.0-24.0","20","1","2025-01-22 20:08:36","6073afb29c8d06c5d8f22ae9f1371ff8","130.91.127.46","Mozilla/5.0 (Windows NT 10.0; Win64; x64) AppleWebKit/537.36 (KHTML, like Gecko) Chrome/132.0.0.0 Safari/537.36","WebKit","Chrome","132.0.0.0","Windows","10.0","https://app.prolific.com/","en-US,en;q=0.9","5d13a30cc4806c00191ecd36","679147d2997803490f072fae","6791502e65484f3e439730c2","","4242","[""Did you notice any patterns? <br><br>Press Enter to watch that example again and follow the steps of Omgne Sort.""]","enter","",""
"","","","","","html-button-response","41","140607","0.0-25.0","20","1","2025-01-22 20:08:36","6073afb29c8d06c5d8f22ae9f1371ff8","130.91.127.46","Mozilla/5.0 (Windows NT 10.0; Win64; x64) AppleWebKit/537.36 (KHTML, like Gecko) Chrome/132.0.0.0 Safari/537.36","WebKit","Chrome","132.0.0.0","Windows","10.0","https://app.prolific.com/","en-US,en;q=0.9","5d13a30cc4806c00191ecd36","679147d2997803490f072fae","6791502e65484f3e439730c2","","null","<img id='selected' src='G_7.jpg' height='90'> <img src='G_1.jpg' height='90'> <img src='G_9.jpg' height='90'> <img src='G_5.jpg' height='90'> <img src='G_3.jpg' height='90'>","null","Learning example 0",""
"","","","","","html-button-response","42","140921","0.0-26.0","20","1","2025-01-22 20:08:36","6073afb29c8d06c5d8f22ae9f1371ff8","130.91.127.46","Mozilla/5.0 (Windows NT 10.0; Win64; x64) AppleWebKit/537.36 (KHTML, like Gecko) Chrome/132.0.0.0 Safari/537.36","WebKit","Chrome","132.0.0.0","Windows","10.0","https://app.prolific.com/","en-US,en;q=0.9","5d13a30cc4806c00191ecd36","679147d2997803490f072fae","6791502e65484f3e439730c2","","null","<img id='selected' src='G_7.jpg' height='90'> <img id='selected' src='G_1.jpg' height='90'> <img src='G_9.jpg' height='90'> <img src='G_5.jpg' height='90'> <img src='G_3.jpg' height='90'>","null","Learning example 0",""
"","","","","","html-button-response","43","141231","0.0-27.0","20","1","2025-01-22 20:08:36","6073afb29c8d06c5d8f22ae9f1371ff8","130.91.127.46","Mozilla/5.0 (Windows NT 10.0; Win64; x64) AppleWebKit/537.36 (KHTML, like Gecko) Chrome/132.0.0.0 Safari/537.36","WebKit","Chrome","132.0.0.0","Windows","10.0","https://app.prolific.com/","en-US,en;q=0.9","5d13a30cc4806c00191ecd36","679147d2997803490f072fae","6791502e65484f3e439730c2","","null","<img id='swapped' src='G_1.jpg' height='90'> <img id='swapped' src='G_7.jpg' height='90'> <img src='G_9.jpg' height='90'> <img src='G_5.jpg' height='90'> <img src='G_3.jpg' height='90'>","null","Learning example 0",""
"","","","","","html-button-response","44","143609","0.0-28.0-0.0-0.0","20","1","2025-01-22 20:08:36","6073afb29c8d06c5d8f22ae9f1371ff8","130.91.127.46","Mozilla/5.0 (Windows NT 10.0; Win64; x64) AppleWebKit/537.36 (KHTML, like Gecko) Chrome/132.0.0.0 Safari/537.36","WebKit","Chrome","132.0.0.0","Windows","10.0","https://app.prolific.com/","en-US,en;q=0.9","5d13a30cc4806c00191ecd36","679147d2997803490f072fae","6791502e65484f3e439730c2","","2373","<img id='swapped' src='G_1.jpg' height='90'> <img id='swapped' src='G_7.jpg' height='90'> <img src='G_9.jpg' height='90'> <img src='G_5.jpg' height='90'> <img src='G_3.jpg' height='90'>","0","Learning example 0",""
"","","","","","html-button-response","45","143947","0.0-28.1-0.1-0.1","20","1","2025-01-22 20:08:36","6073afb29c8d06c5d8f22ae9f1371ff8","130.91.127.46","Mozilla/5.0 (Windows NT 10.0; Win64; x64) AppleWebKit/537.36 (KHTML, like Gecko) Chrome/132.0.0.0 Safari/537.36","WebKit","Chrome","132.0.0.0","Windows","10.0","https://app.prolific.com/","en-US,en;q=0.9","5d13a30cc4806c00191ecd36","679147d2997803490f072fae","6791502e65484f3e439730c2","","336","<img id='swapped' src='G_1.jpg' height='90'> <img id='swapped' src='G_7.jpg' height='90'> <img src='G_9.jpg' height='90'> <img src='G_5.jpg' height='90'> <img src='G_3.jpg' height='90'>","1","Learning example 0",""
"","","","","","html-button-response","46","144161","0.0-29.0","20","1","2025-01-22 20:08:36","6073afb29c8d06c5d8f22ae9f1371ff8","130.91.127.46","Mozilla/5.0 (Windows NT 10.0; Win64; x64) AppleWebKit/537.36 (KHTML, like Gecko) Chrome/132.0.0.0 Safari/537.36","WebKit","Chrome","132.0.0.0","Windows","10.0","https://app.prolific.com/","en-US,en;q=0.9","5d13a30cc4806c00191ecd36","679147d2997803490f072fae","6791502e65484f3e439730c2","","null","<img  src='G_1.jpg' height='90'> <img  src='G_7.jpg' height='90'> <img src='G_9.jpg' height='90'> <img src='G_5.jpg' height='90'> <img src='G_3.jpg' height='90'>","null","Learning example 0",""
"","","","","","html-button-response","47","144569","0.0-30.0","20","1","2025-01-22 20:08:36","6073afb29c8d06c5d8f22ae9f1371ff8","130.91.127.46","Mozilla/5.0 (Windows NT 10.0; Win64; x64) AppleWebKit/537.36 (KHTML, like Gecko) Chrome/132.0.0.0 Safari/537.36","WebKit","Chrome","132.0.0.0","Windows","10.0","https://app.prolific.com/","en-US,en;q=0.9","5d13a30cc4806c00191ecd36","679147d2997803490f072fae","6791502e65484f3e439730c2","","null","<img  src='G_1.jpg' height='90'> <img id='selected'  src='G_7.jpg' height='90'> <img src='G_9.jpg' height='90'> <img src='G_5.jpg' height='90'> <img src='G_3.jpg' height='90'>","null","Learning example 0",""
"","","","","","html-button-response","48","144880","0.0-31.0","20","1","2025-01-22 20:08:36","6073afb29c8d06c5d8f22ae9f1371ff8","130.91.127.46","Mozilla/5.0 (Windows NT 10.0; Win64; x64) AppleWebKit/537.36 (KHTML, like Gecko) Chrome/132.0.0.0 Safari/537.36","WebKit","Chrome","132.0.0.0","Windows","10.0","https://app.prolific.com/","en-US,en;q=0.9","5d13a30cc4806c00191ecd36","679147d2997803490f072fae","6791502e65484f3e439730c2","","null","<img  src='G_1.jpg' height='90'> <img id='selected'  src='G_7.jpg' height='90'> <img id='selected' src='G_9.jpg' height='90'> <img src='G_5.jpg' height='90'> <img src='G_3.jpg' height='90'>","null","Learning example 0",""
"","","","","","html-button-response","49","145192","0.0-32.0","20","1","2025-01-22 20:08:36","6073afb29c8d06c5d8f22ae9f1371ff8","130.91.127.46","Mozilla/5.0 (Windows NT 10.0; Win64; x64) AppleWebKit/537.36 (KHTML, like Gecko) Chrome/132.0.0.0 Safari/537.36","WebKit","Chrome","132.0.0.0","Windows","10.0","https://app.prolific.com/","en-US,en;q=0.9","5d13a30cc4806c00191ecd36","679147d2997803490f072fae","6791502e65484f3e439730c2","","null","<img  src='G_1.jpg' height='90'> <img id='selected'  src='G_7.jpg' height='90'> <img id='selected' src='G_9.jpg' height='90'> <img src='G_5.jpg' height='90'> <img src='G_3.jpg' height='90'>","null","Learning example 0",""
"","","","","","html-button-response","50","146017","0.0-33.0-0.0-0.0","20","1","2025-01-22 20:08:36","6073afb29c8d06c5d8f22ae9f1371ff8","130.91.127.46","Mozilla/5.0 (Windows NT 10.0; Win64; x64) AppleWebKit/537.36 (KHTML, like Gecko) Chrome/132.0.0.0 Safari/537.36","WebKit","Chrome","132.0.0.0","Windows","10.0","https://app.prolific.com/","en-US,en;q=0.9","5d13a30cc4806c00191ecd36","679147d2997803490f072fae","6791502e65484f3e439730c2","","821","<img  src='G_1.jpg' height='90'> <img id='selected'  src='G_7.jpg' height='90'> <img id='selected' src='G_9.jpg' height='90'> <img src='G_5.jpg' height='90'> <img src='G_3.jpg' height='90'>","1","Learning example 0",""
"","","","","","html-button-response","51","146354","0.0-33.1-0.1-0.1","20","1","2025-01-22 20:08:36","6073afb29c8d06c5d8f22ae9f1371ff8","130.91.127.46","Mozilla/5.0 (Windows NT 10.0; Win64; x64) AppleWebKit/537.36 (KHTML, like Gecko) Chrome/132.0.0.0 Safari/537.36","WebKit","Chrome","132.0.0.0","Windows","10.0","https://app.prolific.com/","en-US,en;q=0.9","5d13a30cc4806c00191ecd36","679147d2997803490f072fae","6791502e65484f3e439730c2","","333","<img  src='G_1.jpg' height='90'> <img id='selected'  src='G_7.jpg' height='90'> <img id='selected' src='G_9.jpg' height='90'> <img src='G_5.jpg' height='90'> <img src='G_3.jpg' height='90'>","2","Learning example 0",""
"","","","","","html-button-response","52","146567","0.0-34.0","20","1","2025-01-22 20:08:36","6073afb29c8d06c5d8f22ae9f1371ff8","130.91.127.46","Mozilla/5.0 (Windows NT 10.0; Win64; x64) AppleWebKit/537.36 (KHTML, like Gecko) Chrome/132.0.0.0 Safari/537.36","WebKit","Chrome","132.0.0.0","Windows","10.0","https://app.prolific.com/","en-US,en;q=0.9","5d13a30cc4806c00191ecd36","679147d2997803490f072fae","6791502e65484f3e439730c2","","null","<img  src='G_1.jpg' height='90'> <img   src='G_7.jpg' height='90'> <img  src='G_9.jpg' height='90'> <img src='G_5.jpg' height='90'> <img src='G_3.jpg' height='90'>","null","Learning example 0",""
"","","","","","html-button-response","53","146972","0.0-35.0","20","1","2025-01-22 20:08:36","6073afb29c8d06c5d8f22ae9f1371ff8","130.91.127.46","Mozilla/5.0 (Windows NT 10.0; Win64; x64) AppleWebKit/537.36 (KHTML, like Gecko) Chrome/132.0.0.0 Safari/537.36","WebKit","Chrome","132.0.0.0","Windows","10.0","https://app.prolific.com/","en-US,en;q=0.9","5d13a30cc4806c00191ecd36","679147d2997803490f072fae","6791502e65484f3e439730c2","","null","<img  src='G_1.jpg' height='90'> <img   src='G_7.jpg' height='90'> <img id='selected'  src='G_9.jpg' height='90'> <img src='G_5.jpg' height='90'> <img src='G_3.jpg' height='90'>","null","Learning example 0",""
"","","","","","html-button-response","54","147276","0.0-36.0","20","1","2025-01-22 20:08:36","6073afb29c8d06c5d8f22ae9f1371ff8","130.91.127.46","Mozilla/5.0 (Windows NT 10.0; Win64; x64) AppleWebKit/537.36 (KHTML, like Gecko) Chrome/132.0.0.0 Safari/537.36","WebKit","Chrome","132.0.0.0","Windows","10.0","https://app.prolific.com/","en-US,en;q=0.9","5d13a30cc4806c00191ecd36","679147d2997803490f072fae","6791502e65484f3e439730c2","","null","<img  src='G_1.jpg' height='90'> <img   src='G_7.jpg' height='90'> <img id='selected'  src='G_9.jpg' height='90'> <img id='selected' src='G_5.jpg' height='90'> <img src='G_3.jpg' height='90'>","null","Learning example 0",""
"","","","","","html-button-response","55","147581","0.0-37.0","20","1","2025-01-22 20:08:36","6073afb29c8d06c5d8f22ae9f1371ff8","130.91.127.46","Mozilla/5.0 (Windows NT 10.0; Win64; x64) AppleWebKit/537.36 (KHTML, like Gecko) Chrome/132.0.0.0 Safari/537.36","WebKit","Chrome","132.0.0.0","Windows","10.0","https://app.prolific.com/","en-US,en;q=0.9","5d13a30cc4806c00191ecd36","679147d2997803490f072fae","6791502e65484f3e439730c2","","null","<img  src='G_1.jpg' height='90'> <img   src='G_7.jpg' height='90'> <img id='selected'  src='G_9.jpg' height='90'> <img id='selected' src='G_5.jpg' height='90'> <img src='G_3.jpg' height='90'>","null","Learning example 0",""
"","","","","","html-button-response","56","147874","0.0-38.0-0.0-0.0","20","1","2025-01-22 20:08:36","6073afb29c8d06c5d8f22ae9f1371ff8","130.91.127.46","Mozilla/5.0 (Windows NT 10.0; Win64; x64) AppleWebKit/537.36 (KHTML, like Gecko) Chrome/132.0.0.0 Safari/537.36","WebKit","Chrome","132.0.0.0","Windows","10.0","https://app.prolific.com/","en-US,en;q=0.9","5d13a30cc4806c00191ecd36","679147d2997803490f072fae","6791502e65484f3e439730c2","","289","<img  src='G_1.jpg' height='90'> <img   src='G_7.jpg' height='90'> <img id='selected'  src='G_9.jpg' height='90'> <img id='selected' src='G_5.jpg' height='90'> <img src='G_3.jpg' height='90'>","2","Learning example 0",""
"","","","","","html-button-response","57","148252","0.0-38.1-0.1-0.1","20","1","2025-01-22 20:08:36","6073afb29c8d06c5d8f22ae9f1371ff8","130.91.127.46","Mozilla/5.0 (Windows NT 10.0; Win64; x64) AppleWebKit/537.36 (KHTML, like Gecko) Chrome/132.0.0.0 Safari/537.36","WebKit","Chrome","132.0.0.0","Windows","10.0","https://app.prolific.com/","en-US,en;q=0.9","5d13a30cc4806c00191ecd36","679147d2997803490f072fae","6791502e65484f3e439730c2","","375","<img  src='G_1.jpg' height='90'> <img   src='G_7.jpg' height='90'> <img id='selected'  src='G_9.jpg' height='90'> <img id='selected' src='G_5.jpg' height='90'> <img src='G_3.jpg' height='90'>","3","Learning example 0",""
"","","","","","html-button-response","58","148471","0.0-39.0","20","1","2025-01-22 20:08:36","6073afb29c8d06c5d8f22ae9f1371ff8","130.91.127.46","Mozilla/5.0 (Windows NT 10.0; Win64; x64) AppleWebKit/537.36 (KHTML, like Gecko) Chrome/132.0.0.0 Safari/537.36","WebKit","Chrome","132.0.0.0","Windows","10.0","https://app.prolific.com/","en-US,en;q=0.9","5d13a30cc4806c00191ecd36","679147d2997803490f072fae","6791502e65484f3e439730c2","","null","<img  src='G_1.jpg' height='90'> <img   src='G_7.jpg' height='90'> <img   src='G_9.jpg' height='90'> <img  src='G_5.jpg' height='90'> <img src='G_3.jpg' height='90'>","null","Learning example 0",""
"","","","","","html-button-response","59","148877","0.0-40.0","20","1","2025-01-22 20:08:36","6073afb29c8d06c5d8f22ae9f1371ff8","130.91.127.46","Mozilla/5.0 (Windows NT 10.0; Win64; x64) AppleWebKit/537.36 (KHTML, like Gecko) Chrome/132.0.0.0 Safari/537.36","WebKit","Chrome","132.0.0.0","Windows","10.0","https://app.prolific.com/","en-US,en;q=0.9","5d13a30cc4806c00191ecd36","679147d2997803490f072fae","6791502e65484f3e439730c2","","null","<img  src='G_1.jpg' height='90'> <img   src='G_7.jpg' height='90'> <img   src='G_9.jpg' height='90'> <img id='selected'  src='G_5.jpg' height='90'> <img src='G_3.jpg' height='90'>","null","Learning example 0",""
"","","","","","html-button-response","60","149180","0.0-41.0","20","1","2025-01-22 20:08:36","6073afb29c8d06c5d8f22ae9f1371ff8","130.91.127.46","Mozilla/5.0 (Windows NT 10.0; Win64; x64) AppleWebKit/537.36 (KHTML, like Gecko) Chrome/132.0.0.0 Safari/537.36","WebKit","Chrome","132.0.0.0","Windows","10.0","https://app.prolific.com/","en-US,en;q=0.9","5d13a30cc4806c00191ecd36","679147d2997803490f072fae","6791502e65484f3e439730c2","","null","<img  src='G_1.jpg' height='90'> <img   src='G_7.jpg' height='90'> <img   src='G_9.jpg' height='90'> <img id='selected'  src='G_5.jpg' height='90'> <img id='selected' src='G_3.jpg' height='90'>","null","Learning example 0",""
"","","","","","html-button-response","61","149397","0.0-42.0","20","1","2025-01-22 20:08:36","6073afb29c8d06c5d8f22ae9f1371ff8","130.91.127.46","Mozilla/5.0 (Windows NT 10.0; Win64; x64) AppleWebKit/537.36 (KHTML, like Gecko) Chrome/132.0.0.0 Safari/537.36","WebKit","Chrome","132.0.0.0","Windows","10.0","https://app.prolific.com/","en-US,en;q=0.9","5d13a30cc4806c00191ecd36","679147d2997803490f072fae","6791502e65484f3e439730c2","","213","<img  src='G_1.jpg' height='90'> <img   src='G_7.jpg' height='90'> <img   src='G_9.jpg' height='90'> <img id='selected'  src='G_5.jpg' height='90'> <img id='selected' src='G_3.jpg' height='90'>","3","Learning example 0",""
"","","","","","html-button-response","62","149688","0.0-43.0-0.0-0.0","20","1","2025-01-22 20:08:36","6073afb29c8d06c5d8f22ae9f1371ff8","130.91.127.46","Mozilla/5.0 (Windows NT 10.0; Win64; x64) AppleWebKit/537.36 (KHTML, like Gecko) Chrome/132.0.0.0 Safari/537.36","WebKit","Chrome","132.0.0.0","Windows","10.0","https://app.prolific.com/","en-US,en;q=0.9","5d13a30cc4806c00191ecd36","679147d2997803490f072fae","6791502e65484f3e439730c2","","287","<img  src='G_1.jpg' height='90'> <img   src='G_7.jpg' height='90'> <img   src='G_9.jpg' height='90'> <img id='selected'  src='G_5.jpg' height='90'> <img id='selected' src='G_3.jpg' height='90'>","4","Learning example 0",""
"","","","","","html-button-response","63","149892","0.0-44.0","20","1","2025-01-22 20:08:36","6073afb29c8d06c5d8f22ae9f1371ff8","130.91.127.46","Mozilla/5.0 (Windows NT 10.0; Win64; x64) AppleWebKit/537.36 (KHTML, like Gecko) Chrome/132.0.0.0 Safari/537.36","WebKit","Chrome","132.0.0.0","Windows","10.0","https://app.prolific.com/","en-US,en;q=0.9","5d13a30cc4806c00191ecd36","679147d2997803490f072fae","6791502e65484f3e439730c2","","null","<img  src='G_1.jpg' height='90'> <img   src='G_7.jpg' height='90'> <img   src='G_9.jpg' height='90'> <img   src='G_5.jpg' height='90'> <img  src='G_3.jpg' height='90'>","null","Learning example 0",""
"","","","","","html-keyboard-response","64","153057","0.0-45.0","20","1","2025-01-22 20:08:36","6073afb29c8d06c5d8f22ae9f1371ff8","130.91.127.46","Mozilla/5.0 (Windows NT 10.0; Win64; x64) AppleWebKit/537.36 (KHTML, like Gecko) Chrome/132.0.0.0 Safari/537.36","WebKit","Chrome","132.0.0.0","Windows","10.0","https://app.prolific.com/","en-US,en;q=0.9","5d13a30cc4806c00191ecd36","679147d2997803490f072fae","6791502e65484f3e439730c2","","3162","[""Final order was 1,2,3,4,5. The initial order was 2,1,3,4,5.<br>It took 1 swaps to sort it correctly with Omgne Sort. <br><br>Press Enter to continue.""]","enter","",""
"","","","","","instructions","65","201560","0.0-46.0","20","1","2025-01-22 20:08:36","6073afb29c8d06c5d8f22ae9f1371ff8","130.91.127.46","Mozilla/5.0 (Windows NT 10.0; Win64; x64) AppleWebKit/537.36 (KHTML, like Gecko) Chrome/132.0.0.0 Safari/537.36","WebKit","Chrome","132.0.0.0","Windows","10.0","https://app.prolific.com/","en-US,en;q=0.9","5d13a30cc4806c00191ecd36","679147d2997803490f072fae","6791502e65484f3e439730c2","[{""page_index"":0,""viewing_time"":22584},{""page_index"":1,""viewing_time"":7474},{""page_index"":2,""viewing_time"":15876},{""page_index"":3,""viewing_time"":2568}]","48502","","","",""
"","","","","","html-keyboard-response","66","208170","0.0-47.0","20","1","2025-01-22 20:08:36","6073afb29c8d06c5d8f22ae9f1371ff8","130.91.127.46","Mozilla/5.0 (Windows NT 10.0; Win64; x64) AppleWebKit/537.36 (KHTML, like Gecko) Chrome/132.0.0.0 Safari/537.36","WebKit","Chrome","132.0.0.0","Windows","10.0","https://app.prolific.com/","en-US,en;q=0.9","5d13a30cc4806c00191ecd36","679147d2997803490f072fae","6791502e65484f3e439730c2","","6607","[""Example 2<br><br>You will watch Omnge Sort in action. Try to identify any patterns in the comparisons made by this method. <br><br>Press Enter to continue.""]","enter","",""
"","","","","","html-keyboard-response","67","208684","0.0-48.0","20","1","2025-01-22 20:08:36","6073afb29c8d06c5d8f22ae9f1371ff8","130.91.127.46","Mozilla/5.0 (Windows NT 10.0; Win64; x64) AppleWebKit/537.36 (KHTML, like Gecko) Chrome/132.0.0.0 Safari/537.36","WebKit","Chrome","132.0.0.0","Windows","10.0","https://app.prolific.com/","en-US,en;q=0.9","5d13a30cc4806c00191ecd36","679147d2997803490f072fae","6791502e65484f3e439730c2","","null","<img id='selected' src='G_7.jpg' height='90'> <img src='G_1.jpg' height='90'> <img src='G_9.jpg' height='90'> <img src='G_5.jpg' height='90'> <img src='G_3.jpg' height='90'>","null","Animation1",""
"","","","","","html-keyboard-response","68","209188","0.0-49.0","20","1","2025-01-22 20:08:36","6073afb29c8d06c5d8f22ae9f1371ff8","130.91.127.46","Mozilla/5.0 (Windows NT 10.0; Win64; x64) AppleWebKit/537.36 (KHTML, like Gecko) Chrome/132.0.0.0 Safari/537.36","WebKit","Chrome","132.0.0.0","Windows","10.0","https://app.prolific.com/","en-US,en;q=0.9","5d13a30cc4806c00191ecd36","679147d2997803490f072fae","6791502e65484f3e439730c2","","null","<img id='selected' src='G_7.jpg' height='90'> <img id='selected' src='G_1.jpg' height='90'> <img src='G_9.jpg' height='90'> <img src='G_5.jpg' height='90'> <img src='G_3.jpg' height='90'>","null","Animation1",""
"","","","","","html-keyboard-response","69","209691","0.0-50.0","20","1","2025-01-22 20:08:36","6073afb29c8d06c5d8f22ae9f1371ff8","130.91.127.46","Mozilla/5.0 (Windows NT 10.0; Win64; x64) AppleWebKit/537.36 (KHTML, like Gecko) Chrome/132.0.0.0 Safari/537.36","WebKit","Chrome","132.0.0.0","Windows","10.0","https://app.prolific.com/","en-US,en;q=0.9","5d13a30cc4806c00191ecd36","679147d2997803490f072fae","6791502e65484f3e439730c2","","null","<img id='swapped' src='G_1.jpg' height='90'> <img id='swapped' src='G_7.jpg' height='90'> <img src='G_9.jpg' height='90'> <img src='G_5.jpg' height='90'> <img src='G_3.jpg' height='90'>","null","Animation1",""
"","","","","","html-keyboard-response","70","209996","0.0-51.0","20","1","2025-01-22 20:08:36","6073afb29c8d06c5d8f22ae9f1371ff8","130.91.127.46","Mozilla/5.0 (Windows NT 10.0; Win64; x64) AppleWebKit/537.36 (KHTML, like Gecko) Chrome/132.0.0.0 Safari/537.36","WebKit","Chrome","132.0.0.0","Windows","10.0","https://app.prolific.com/","en-US,en;q=0.9","5d13a30cc4806c00191ecd36","679147d2997803490f072fae","6791502e65484f3e439730c2","","null","<img  src='G_1.jpg' height='90'> <img  src='G_7.jpg' height='90'> <img src='G_9.jpg' height='90'> <img src='G_5.jpg' height='90'> <img src='G_3.jpg' height='90'>","null","Animation1",""
"","","","","","html-keyboard-response","71","210513","0.0-52.0","20","1","2025-01-22 20:08:36","6073afb29c8d06c5d8f22ae9f1371ff8","130.91.127.46","Mozilla/5.0 (Windows NT 10.0; Win64; x64) AppleWebKit/537.36 (KHTML, like Gecko) Chrome/132.0.0.0 Safari/537.36","WebKit","Chrome","132.0.0.0","Windows","10.0","https://app.prolific.com/","en-US,en;q=0.9","5d13a30cc4806c00191ecd36","679147d2997803490f072fae","6791502e65484f3e439730c2","","null","<img  src='G_1.jpg' height='90'> <img id='selected'  src='G_7.jpg' height='90'> <img src='G_9.jpg' height='90'> <img src='G_5.jpg' height='90'> <img src='G_3.jpg' height='90'>","null","Animation1",""
"","","","","","html-keyboard-response","72","211019","0.0-53.0","20","1","2025-01-22 20:08:36","6073afb29c8d06c5d8f22ae9f1371ff8","130.91.127.46","Mozilla/5.0 (Windows NT 10.0; Win64; x64) AppleWebKit/537.36 (KHTML, like Gecko) Chrome/132.0.0.0 Safari/537.36","WebKit","Chrome","132.0.0.0","Windows","10.0","https://app.prolific.com/","en-US,en;q=0.9","5d13a30cc4806c00191ecd36","679147d2997803490f072fae","6791502e65484f3e439730c2","","null","<img  src='G_1.jpg' height='90'> <img id='selected'  src='G_7.jpg' height='90'> <img id='selected' src='G_9.jpg' height='90'> <img src='G_5.jpg' height='90'> <img src='G_3.jpg' height='90'>","null","Animation1",""
"","","","","","html-keyboard-response","73","211535","0.0-54.0","20","1","2025-01-22 20:08:36","6073afb29c8d06c5d8f22ae9f1371ff8","130.91.127.46","Mozilla/5.0 (Windows NT 10.0; Win64; x64) AppleWebKit/537.36 (KHTML, like Gecko) Chrome/132.0.0.0 Safari/537.36","WebKit","Chrome","132.0.0.0","Windows","10.0","https://app.prolific.com/","en-US,en;q=0.9","5d13a30cc4806c00191ecd36","679147d2997803490f072fae","6791502e65484f3e439730c2","","null","<img  src='G_1.jpg' height='90'> <img id='swapped' src='G_9.jpg' height='90'> <img id='swapped'  src='G_7.jpg' height='90'> <img src='G_5.jpg' height='90'> <img src='G_3.jpg' height='90'>","null","Animation1",""
"","","","","","html-keyboard-response","74","211843","0.0-55.0","20","1","2025-01-22 20:08:36","6073afb29c8d06c5d8f22ae9f1371ff8","130.91.127.46","Mozilla/5.0 (Windows NT 10.0; Win64; x64) AppleWebKit/537.36 (KHTML, like Gecko) Chrome/132.0.0.0 Safari/537.36","WebKit","Chrome","132.0.0.0","Windows","10.0","https://app.prolific.com/","en-US,en;q=0.9","5d13a30cc4806c00191ecd36","679147d2997803490f072fae","6791502e65484f3e439730c2","","null","<img  src='G_1.jpg' height='90'> <img  src='G_9.jpg' height='90'> <img   src='G_7.jpg' height='90'> <img src='G_5.jpg' height='90'> <img src='G_3.jpg' height='90'>","null","Animation1",""
"","","","","","html-keyboard-response","75","212346","0.0-56.0","20","1","2025-01-22 20:08:36","6073afb29c8d06c5d8f22ae9f1371ff8","130.91.127.46","Mozilla/5.0 (Windows NT 10.0; Win64; x64) AppleWebKit/537.36 (KHTML, like Gecko) Chrome/132.0.0.0 Safari/537.36","WebKit","Chrome","132.0.0.0","Windows","10.0","https://app.prolific.com/","en-US,en;q=0.9","5d13a30cc4806c00191ecd36","679147d2997803490f072fae","6791502e65484f3e439730c2","","null","<img id='selected'  src='G_1.jpg' height='90'> <img  src='G_9.jpg' height='90'> <img   src='G_7.jpg' height='90'> <img src='G_5.jpg' height='90'> <img src='G_3.jpg' height='90'>","null","Animation1",""
"","","","","","html-keyboard-response","76","212862","0.0-57.0","20","1","2025-01-22 20:08:36","6073afb29c8d06c5d8f22ae9f1371ff8","130.91.127.46","Mozilla/5.0 (Windows NT 10.0; Win64; x64) AppleWebKit/537.36 (KHTML, like Gecko) Chrome/132.0.0.0 Safari/537.36","WebKit","Chrome","132.0.0.0","Windows","10.0","https://app.prolific.com/","en-US,en;q=0.9","5d13a30cc4806c00191ecd36","679147d2997803490f072fae","6791502e65484f3e439730c2","","null","<img id='selected'  src='G_1.jpg' height='90'> <img id='selected'  src='G_9.jpg' height='90'> <img   src='G_7.jpg' height='90'> <img src='G_5.jpg' height='90'> <img src='G_3.jpg' height='90'>","null","Animation1",""
"","","","","","html-keyboard-response","77","213379","0.0-58.0","20","1","2025-01-22 20:08:36","6073afb29c8d06c5d8f22ae9f1371ff8","130.91.127.46","Mozilla/5.0 (Windows NT 10.0; Win64; x64) AppleWebKit/537.36 (KHTML, like Gecko) Chrome/132.0.0.0 Safari/537.36","WebKit","Chrome","132.0.0.0","Windows","10.0","https://app.prolific.com/","en-US,en;q=0.9","5d13a30cc4806c00191ecd36","679147d2997803490f072fae","6791502e65484f3e439730c2","","null","<img id='swapped'  src='G_9.jpg' height='90'> <img id='swapped'  src='G_1.jpg' height='90'> <img   src='G_7.jpg' height='90'> <img src='G_5.jpg' height='90'> <img src='G_3.jpg' height='90'>","null","Animation1",""
"","","","","","html-keyboard-response","78","213691","0.0-59.0","20","1","2025-01-22 20:08:36","6073afb29c8d06c5d8f22ae9f1371ff8","130.91.127.46","Mozilla/5.0 (Windows NT 10.0; Win64; x64) AppleWebKit/537.36 (KHTML, like Gecko) Chrome/132.0.0.0 Safari/537.36","WebKit","Chrome","132.0.0.0","Windows","10.0","https://app.prolific.com/","en-US,en;q=0.9","5d13a30cc4806c00191ecd36","679147d2997803490f072fae","6791502e65484f3e439730c2","","null","<img   src='G_9.jpg' height='90'> <img   src='G_1.jpg' height='90'> <img   src='G_7.jpg' height='90'> <img src='G_5.jpg' height='90'> <img src='G_3.jpg' height='90'>","null","Animation1",""
"","","","","","html-keyboard-response","79","214194","0.0-60.0","20","1","2025-01-22 20:08:36","6073afb29c8d06c5d8f22ae9f1371ff8","130.91.127.46","Mozilla/5.0 (Windows NT 10.0; Win64; x64) AppleWebKit/537.36 (KHTML, like Gecko) Chrome/132.0.0.0 Safari/537.36","WebKit","Chrome","132.0.0.0","Windows","10.0","https://app.prolific.com/","en-US,en;q=0.9","5d13a30cc4806c00191ecd36","679147d2997803490f072fae","6791502e65484f3e439730c2","","null","<img   src='G_9.jpg' height='90'> <img   src='G_1.jpg' height='90'> <img id='selected'   src='G_7.jpg' height='90'> <img src='G_5.jpg' height='90'> <img src='G_3.jpg' height='90'>","null","Animation1",""
"","","","","","html-keyboard-response","80","214708","0.0-61.0","20","1","2025-01-22 20:08:36","6073afb29c8d06c5d8f22ae9f1371ff8","130.91.127.46","Mozilla/5.0 (Windows NT 10.0; Win64; x64) AppleWebKit/537.36 (KHTML, like Gecko) Chrome/132.0.0.0 Safari/537.36","WebKit","Chrome","132.0.0.0","Windows","10.0","https://app.prolific.com/","en-US,en;q=0.9","5d13a30cc4806c00191ecd36","679147d2997803490f072fae","6791502e65484f3e439730c2","","null","<img   src='G_9.jpg' height='90'> <img   src='G_1.jpg' height='90'> <img id='selected'   src='G_7.jpg' height='90'> <img id='selected' src='G_5.jpg' height='90'> <img src='G_3.jpg' height='90'>","null","Animation1",""
"","","","","","html-keyboard-response","81","215223","0.0-62.0","20","1","2025-01-22 20:08:36","6073afb29c8d06c5d8f22ae9f1371ff8","130.91.127.46","Mozilla/5.0 (Windows NT 10.0; Win64; x64) AppleWebKit/537.36 (KHTML, like Gecko) Chrome/132.0.0.0 Safari/537.36","WebKit","Chrome","132.0.0.0","Windows","10.0","https://app.prolific.com/","en-US,en;q=0.9","5d13a30cc4806c00191ecd36","679147d2997803490f072fae","6791502e65484f3e439730c2","","null","<img   src='G_9.jpg' height='90'> <img   src='G_1.jpg' height='90'> <img id='swapped' src='G_5.jpg' height='90'> <img id='swapped'   src='G_7.jpg' height='90'> <img src='G_3.jpg' height='90'>","null","Animation1",""
"","","","","","html-keyboard-response","82","215537","0.0-63.0","20","1","2025-01-22 20:08:36","6073afb29c8d06c5d8f22ae9f1371ff8","130.91.127.46","Mozilla/5.0 (Windows NT 10.0; Win64; x64) AppleWebKit/537.36 (KHTML, like Gecko) Chrome/132.0.0.0 Safari/537.36","WebKit","Chrome","132.0.0.0","Windows","10.0","https://app.prolific.com/","en-US,en;q=0.9","5d13a30cc4806c00191ecd36","679147d2997803490f072fae","6791502e65484f3e439730c2","","null","<img   src='G_9.jpg' height='90'> <img   src='G_1.jpg' height='90'> <img  src='G_5.jpg' height='90'> <img    src='G_7.jpg' height='90'> <img src='G_3.jpg' height='90'>","null","Animation1",""
"","","","","","html-keyboard-response","83","216055","0.0-64.0","20","1","2025-01-22 20:08:36","6073afb29c8d06c5d8f22ae9f1371ff8","130.91.127.46","Mozilla/5.0 (Windows NT 10.0; Win64; x64) AppleWebKit/537.36 (KHTML, like Gecko) Chrome/132.0.0.0 Safari/537.36","WebKit","Chrome","132.0.0.0","Windows","10.0","https://app.prolific.com/","en-US,en;q=0.9","5d13a30cc4806c00191ecd36","679147d2997803490f072fae","6791502e65484f3e439730c2","","null","<img   src='G_9.jpg' height='90'> <img id='selected'   src='G_1.jpg' height='90'> <img  src='G_5.jpg' height='90'> <img    src='G_7.jpg' height='90'> <img src='G_3.jpg' height='90'>","null","Animation1",""
"","","","","","html-keyboard-response","84","216560","0.0-65.0","20","1","2025-01-22 20:08:36","6073afb29c8d06c5d8f22ae9f1371ff8","130.91.127.46","Mozilla/5.0 (Windows NT 10.0; Win64; x64) AppleWebKit/537.36 (KHTML, like Gecko) Chrome/132.0.0.0 Safari/537.36","WebKit","Chrome","132.0.0.0","Windows","10.0","https://app.prolific.com/","en-US,en;q=0.9","5d13a30cc4806c00191ecd36","679147d2997803490f072fae","6791502e65484f3e439730c2","","null","<img   src='G_9.jpg' height='90'> <img id='selected'   src='G_1.jpg' height='90'> <img id='selected'  src='G_5.jpg' height='90'> <img    src='G_7.jpg' height='90'> <img src='G_3.jpg' height='90'>","null","Animation1",""
"","","","","","html-keyboard-response","85","217077","0.0-66.0","20","1","2025-01-22 20:08:36","6073afb29c8d06c5d8f22ae9f1371ff8","130.91.127.46","Mozilla/5.0 (Windows NT 10.0; Win64; x64) AppleWebKit/537.36 (KHTML, like Gecko) Chrome/132.0.0.0 Safari/537.36","WebKit","Chrome","132.0.0.0","Windows","10.0","https://app.prolific.com/","en-US,en;q=0.9","5d13a30cc4806c00191ecd36","679147d2997803490f072fae","6791502e65484f3e439730c2","","null","<img   src='G_9.jpg' height='90'> <img id='swapped'  src='G_5.jpg' height='90'> <img id='swapped'   src='G_1.jpg' height='90'> <img    src='G_7.jpg' height='90'> <img src='G_3.jpg' height='90'>","null","Animation1",""
"","","","","","html-keyboard-response","86","217391","0.0-67.0","20","1","2025-01-22 20:08:36","6073afb29c8d06c5d8f22ae9f1371ff8","130.91.127.46","Mozilla/5.0 (Windows NT 10.0; Win64; x64) AppleWebKit/537.36 (KHTML, like Gecko) Chrome/132.0.0.0 Safari/537.36","WebKit","Chrome","132.0.0.0","Windows","10.0","https://app.prolific.com/","en-US,en;q=0.9","5d13a30cc4806c00191ecd36","679147d2997803490f072fae","6791502e65484f3e439730c2","","null","<img   src='G_9.jpg' height='90'> <img   src='G_5.jpg' height='90'> <img    src='G_1.jpg' height='90'> <img    src='G_7.jpg' height='90'> <img src='G_3.jpg' height='90'>","null","Animation1",""
"","","","","","html-keyboard-response","87","217907","0.0-68.0","20","1","2025-01-22 20:08:36","6073afb29c8d06c5d8f22ae9f1371ff8","130.91.127.46","Mozilla/5.0 (Windows NT 10.0; Win64; x64) AppleWebKit/537.36 (KHTML, like Gecko) Chrome/132.0.0.0 Safari/537.36","WebKit","Chrome","132.0.0.0","Windows","10.0","https://app.prolific.com/","en-US,en;q=0.9","5d13a30cc4806c00191ecd36","679147d2997803490f072fae","6791502e65484f3e439730c2","","null","<img id='selected'   src='G_9.jpg' height='90'> <img   src='G_5.jpg' height='90'> <img    src='G_1.jpg' height='90'> <img    src='G_7.jpg' height='90'> <img src='G_3.jpg' height='90'>","null","Animation1",""
"","","","","","html-keyboard-response","88","218424","0.0-69.0","20","1","2025-01-22 20:08:36","6073afb29c8d06c5d8f22ae9f1371ff8","130.91.127.46","Mozilla/5.0 (Windows NT 10.0; Win64; x64) AppleWebKit/537.36 (KHTML, like Gecko) Chrome/132.0.0.0 Safari/537.36","WebKit","Chrome","132.0.0.0","Windows","10.0","https://app.prolific.com/","en-US,en;q=0.9","5d13a30cc4806c00191ecd36","679147d2997803490f072fae","6791502e65484f3e439730c2","","null","<img id='selected'   src='G_9.jpg' height='90'> <img id='selected'   src='G_5.jpg' height='90'> <img    src='G_1.jpg' height='90'> <img    src='G_7.jpg' height='90'> <img src='G_3.jpg' height='90'>","null","Animation1",""
"","","","","","html-keyboard-response","89","218938","0.0-70.0","20","1","2025-01-22 20:08:36","6073afb29c8d06c5d8f22ae9f1371ff8","130.91.127.46","Mozilla/5.0 (Windows NT 10.0; Win64; x64) AppleWebKit/537.36 (KHTML, like Gecko) Chrome/132.0.0.0 Safari/537.36","WebKit","Chrome","132.0.0.0","Windows","10.0","https://app.prolific.com/","en-US,en;q=0.9","5d13a30cc4806c00191ecd36","679147d2997803490f072fae","6791502e65484f3e439730c2","","null","<img id='swapped'   src='G_5.jpg' height='90'> <img id='swapped'   src='G_9.jpg' height='90'> <img    src='G_1.jpg' height='90'> <img    src='G_7.jpg' height='90'> <img src='G_3.jpg' height='90'>","null","Animation1",""
"","","","","","html-keyboard-response","90","219251","0.0-71.0","20","1","2025-01-22 20:08:36","6073afb29c8d06c5d8f22ae9f1371ff8","130.91.127.46","Mozilla/5.0 (Windows NT 10.0; Win64; x64) AppleWebKit/537.36 (KHTML, like Gecko) Chrome/132.0.0.0 Safari/537.36","WebKit","Chrome","132.0.0.0","Windows","10.0","https://app.prolific.com/","en-US,en;q=0.9","5d13a30cc4806c00191ecd36","679147d2997803490f072fae","6791502e65484f3e439730c2","","null","<img    src='G_5.jpg' height='90'> <img    src='G_9.jpg' height='90'> <img    src='G_1.jpg' height='90'> <img    src='G_7.jpg' height='90'> <img src='G_3.jpg' height='90'>","null","Animation1",""
"","","","","","html-keyboard-response","91","219771","0.0-72.0","20","1","2025-01-22 20:08:36","6073afb29c8d06c5d8f22ae9f1371ff8","130.91.127.46","Mozilla/5.0 (Windows NT 10.0; Win64; x64) AppleWebKit/537.36 (KHTML, like Gecko) Chrome/132.0.0.0 Safari/537.36","WebKit","Chrome","132.0.0.0","Windows","10.0","https://app.prolific.com/","en-US,en;q=0.9","5d13a30cc4806c00191ecd36","679147d2997803490f072fae","6791502e65484f3e439730c2","","null","<img    src='G_5.jpg' height='90'> <img    src='G_9.jpg' height='90'> <img    src='G_1.jpg' height='90'> <img id='selected'    src='G_7.jpg' height='90'> <img src='G_3.jpg' height='90'>","null","Animation1",""
"","","","","","html-keyboard-response","92","220274","0.0-73.0","20","1","2025-01-22 20:08:36","6073afb29c8d06c5d8f22ae9f1371ff8","130.91.127.46","Mozilla/5.0 (Windows NT 10.0; Win64; x64) AppleWebKit/537.36 (KHTML, like Gecko) Chrome/132.0.0.0 Safari/537.36","WebKit","Chrome","132.0.0.0","Windows","10.0","https://app.prolific.com/","en-US,en;q=0.9","5d13a30cc4806c00191ecd36","679147d2997803490f072fae","6791502e65484f3e439730c2","","null","<img    src='G_5.jpg' height='90'> <img    src='G_9.jpg' height='90'> <img    src='G_1.jpg' height='90'> <img id='selected'    src='G_7.jpg' height='90'> <img id='selected' src='G_3.jpg' height='90'>","null","Animation1",""
"","","","","","html-keyboard-response","93","220793","0.0-74.0","20","1","2025-01-22 20:08:36","6073afb29c8d06c5d8f22ae9f1371ff8","130.91.127.46","Mozilla/5.0 (Windows NT 10.0; Win64; x64) AppleWebKit/537.36 (KHTML, like Gecko) Chrome/132.0.0.0 Safari/537.36","WebKit","Chrome","132.0.0.0","Windows","10.0","https://app.prolific.com/","en-US,en;q=0.9","5d13a30cc4806c00191ecd36","679147d2997803490f072fae","6791502e65484f3e439730c2","","null","<img    src='G_5.jpg' height='90'> <img    src='G_9.jpg' height='90'> <img    src='G_1.jpg' height='90'> <img id='swapped' src='G_3.jpg' height='90'> <img id='swapped'    src='G_7.jpg' height='90'>","null","Animation1",""
"","","","","","html-keyboard-response","94","221108","0.0-75.0","20","1","2025-01-22 20:08:36","6073afb29c8d06c5d8f22ae9f1371ff8","130.91.127.46","Mozilla/5.0 (Windows NT 10.0; Win64; x64) AppleWebKit/537.36 (KHTML, like Gecko) Chrome/132.0.0.0 Safari/537.36","WebKit","Chrome","132.0.0.0","Windows","10.0","https://app.prolific.com/","en-US,en;q=0.9","5d13a30cc4806c00191ecd36","679147d2997803490f072fae","6791502e65484f3e439730c2","","null","<img    src='G_5.jpg' height='90'> <img    src='G_9.jpg' height='90'> <img    src='G_1.jpg' height='90'> <img  src='G_3.jpg' height='90'> <img     src='G_7.jpg' height='90'>","null","Animation1",""
"","","","","","html-keyboard-response","95","221617","0.0-76.0","20","1","2025-01-22 20:08:36","6073afb29c8d06c5d8f22ae9f1371ff8","130.91.127.46","Mozilla/5.0 (Windows NT 10.0; Win64; x64) AppleWebKit/537.36 (KHTML, like Gecko) Chrome/132.0.0.0 Safari/537.36","WebKit","Chrome","132.0.0.0","Windows","10.0","https://app.prolific.com/","en-US,en;q=0.9","5d13a30cc4806c00191ecd36","679147d2997803490f072fae","6791502e65484f3e439730c2","","null","<img    src='G_5.jpg' height='90'> <img    src='G_9.jpg' height='90'> <img id='selected'    src='G_1.jpg' height='90'> <img  src='G_3.jpg' height='90'> <img     src='G_7.jpg' height='90'>","null","Animation1",""
"","","","","","html-keyboard-response","96","222130","0.0-77.0","20","1","2025-01-22 20:08:36","6073afb29c8d06c5d8f22ae9f1371ff8","130.91.127.46","Mozilla/5.0 (Windows NT 10.0; Win64; x64) AppleWebKit/537.36 (KHTML, like Gecko) Chrome/132.0.0.0 Safari/537.36","WebKit","Chrome","132.0.0.0","Windows","10.0","https://app.prolific.com/","en-US,en;q=0.9","5d13a30cc4806c00191ecd36","679147d2997803490f072fae","6791502e65484f3e439730c2","","null","<img    src='G_5.jpg' height='90'> <img    src='G_9.jpg' height='90'> <img id='selected'    src='G_1.jpg' height='90'> <img id='selected'  src='G_3.jpg' height='90'> <img     src='G_7.jpg' height='90'>","null","Animation1",""
"","","","","","html-keyboard-response","97","222642","0.0-78.0","20","1","2025-01-22 20:08:36","6073afb29c8d06c5d8f22ae9f1371ff8","130.91.127.46","Mozilla/5.0 (Windows NT 10.0; Win64; x64) AppleWebKit/537.36 (KHTML, like Gecko) Chrome/132.0.0.0 Safari/537.36","WebKit","Chrome","132.0.0.0","Windows","10.0","https://app.prolific.com/","en-US,en;q=0.9","5d13a30cc4806c00191ecd36","679147d2997803490f072fae","6791502e65484f3e439730c2","","null","<img    src='G_5.jpg' height='90'> <img    src='G_9.jpg' height='90'> <img id='swapped'  src='G_3.jpg' height='90'> <img id='swapped'    src='G_1.jpg' height='90'> <img     src='G_7.jpg' height='90'>","null","Animation1",""
"","","","","","html-keyboard-response","98","222953","0.0-79.0","20","1","2025-01-22 20:08:36","6073afb29c8d06c5d8f22ae9f1371ff8","130.91.127.46","Mozilla/5.0 (Windows NT 10.0; Win64; x64) AppleWebKit/537.36 (KHTML, like Gecko) Chrome/132.0.0.0 Safari/537.36","WebKit","Chrome","132.0.0.0","Windows","10.0","https://app.prolific.com/","en-US,en;q=0.9","5d13a30cc4806c00191ecd36","679147d2997803490f072fae","6791502e65484f3e439730c2","","null","<img    src='G_5.jpg' height='90'> <img    src='G_9.jpg' height='90'> <img   src='G_3.jpg' height='90'> <img     src='G_1.jpg' height='90'> <img     src='G_7.jpg' height='90'>","null","Animation1",""
"","","","","","html-keyboard-response","99","223470","0.0-80.0","20","1","2025-01-22 20:08:36","6073afb29c8d06c5d8f22ae9f1371ff8","130.91.127.46","Mozilla/5.0 (Windows NT 10.0; Win64; x64) AppleWebKit/537.36 (KHTML, like Gecko) Chrome/132.0.0.0 Safari/537.36","WebKit","Chrome","132.0.0.0","Windows","10.0","https://app.prolific.com/","en-US,en;q=0.9","5d13a30cc4806c00191ecd36","679147d2997803490f072fae","6791502e65484f3e439730c2","","null","<img    src='G_5.jpg' height='90'> <img id='selected'    src='G_9.jpg' height='90'> <img   src='G_3.jpg' height='90'> <img     src='G_1.jpg' height='90'> <img     src='G_7.jpg' height='90'>","null","Animation1",""
"","","","","","html-keyboard-response","100","223983","0.0-81.0","20","1","2025-01-22 20:08:36","6073afb29c8d06c5d8f22ae9f1371ff8","130.91.127.46","Mozilla/5.0 (Windows NT 10.0; Win64; x64) AppleWebKit/537.36 (KHTML, like Gecko) Chrome/132.0.0.0 Safari/537.36","WebKit","Chrome","132.0.0.0","Windows","10.0","https://app.prolific.com/","en-US,en;q=0.9","5d13a30cc4806c00191ecd36","679147d2997803490f072fae","6791502e65484f3e439730c2","","null","<img    src='G_5.jpg' height='90'> <img id='selected'    src='G_9.jpg' height='90'> <img id='selected'   src='G_3.jpg' height='90'> <img     src='G_1.jpg' height='90'> <img     src='G_7.jpg' height='90'>","null","Animation1",""
"","","","","","html-keyboard-response","101","224499","0.0-82.0","20","1","2025-01-22 20:08:36","6073afb29c8d06c5d8f22ae9f1371ff8","130.91.127.46","Mozilla/5.0 (Windows NT 10.0; Win64; x64) AppleWebKit/537.36 (KHTML, like Gecko) Chrome/132.0.0.0 Safari/537.36","WebKit","Chrome","132.0.0.0","Windows","10.0","https://app.prolific.com/","en-US,en;q=0.9","5d13a30cc4806c00191ecd36","679147d2997803490f072fae","6791502e65484f3e439730c2","","null","<img    src='G_5.jpg' height='90'> <img id='swapped'   src='G_3.jpg' height='90'> <img id='swapped'    src='G_9.jpg' height='90'> <img     src='G_1.jpg' height='90'> <img     src='G_7.jpg' height='90'>","null","Animation1",""
"","","","","","html-keyboard-response","102","224811","0.0-83.0","20","1","2025-01-22 20:08:36","6073afb29c8d06c5d8f22ae9f1371ff8","130.91.127.46","Mozilla/5.0 (Windows NT 10.0; Win64; x64) AppleWebKit/537.36 (KHTML, like Gecko) Chrome/132.0.0.0 Safari/537.36","WebKit","Chrome","132.0.0.0","Windows","10.0","https://app.prolific.com/","en-US,en;q=0.9","5d13a30cc4806c00191ecd36","679147d2997803490f072fae","6791502e65484f3e439730c2","","null","<img    src='G_5.jpg' height='90'> <img    src='G_3.jpg' height='90'> <img     src='G_9.jpg' height='90'> <img     src='G_1.jpg' height='90'> <img     src='G_7.jpg' height='90'>","null","Animation1",""
"","","","","","html-keyboard-response","103","225325","0.0-84.0","20","1","2025-01-22 20:08:36","6073afb29c8d06c5d8f22ae9f1371ff8","130.91.127.46","Mozilla/5.0 (Windows NT 10.0; Win64; x64) AppleWebKit/537.36 (KHTML, like Gecko) Chrome/132.0.0.0 Safari/537.36","WebKit","Chrome","132.0.0.0","Windows","10.0","https://app.prolific.com/","en-US,en;q=0.9","5d13a30cc4806c00191ecd36","679147d2997803490f072fae","6791502e65484f3e439730c2","","null","<img id='selected'    src='G_5.jpg' height='90'> <img    src='G_3.jpg' height='90'> <img     src='G_9.jpg' height='90'> <img     src='G_1.jpg' height='90'> <img     src='G_7.jpg' height='90'>","null","Animation1",""
"","","","","","html-keyboard-response","104","225842","0.0-85.0","20","1","2025-01-22 20:08:36","6073afb29c8d06c5d8f22ae9f1371ff8","130.91.127.46","Mozilla/5.0 (Windows NT 10.0; Win64; x64) AppleWebKit/537.36 (KHTML, like Gecko) Chrome/132.0.0.0 Safari/537.36","WebKit","Chrome","132.0.0.0","Windows","10.0","https://app.prolific.com/","en-US,en;q=0.9","5d13a30cc4806c00191ecd36","679147d2997803490f072fae","6791502e65484f3e439730c2","","null","<img id='selected'    src='G_5.jpg' height='90'> <img id='selected'    src='G_3.jpg' height='90'> <img     src='G_9.jpg' height='90'> <img     src='G_1.jpg' height='90'> <img     src='G_7.jpg' height='90'>","null","Animation1",""
"","","","","","html-keyboard-response","105","226345","0.0-86.0","20","1","2025-01-22 20:08:36","6073afb29c8d06c5d8f22ae9f1371ff8","130.91.127.46","Mozilla/5.0 (Windows NT 10.0; Win64; x64) AppleWebKit/537.36 (KHTML, like Gecko) Chrome/132.0.0.0 Safari/537.36","WebKit","Chrome","132.0.0.0","Windows","10.0","https://app.prolific.com/","en-US,en;q=0.9","5d13a30cc4806c00191ecd36","679147d2997803490f072fae","6791502e65484f3e439730c2","","null","<img id='swapped'    src='G_3.jpg' height='90'> <img id='swapped'    src='G_5.jpg' height='90'> <img     src='G_9.jpg' height='90'> <img     src='G_1.jpg' height='90'> <img     src='G_7.jpg' height='90'>","null","Animation1",""
"","","","","","html-keyboard-response","106","226653","0.0-87.0","20","1","2025-01-22 20:08:36","6073afb29c8d06c5d8f22ae9f1371ff8","130.91.127.46","Mozilla/5.0 (Windows NT 10.0; Win64; x64) AppleWebKit/537.36 (KHTML, like Gecko) Chrome/132.0.0.0 Safari/537.36","WebKit","Chrome","132.0.0.0","Windows","10.0","https://app.prolific.com/","en-US,en;q=0.9","5d13a30cc4806c00191ecd36","679147d2997803490f072fae","6791502e65484f3e439730c2","","null","<img     src='G_3.jpg' height='90'> <img     src='G_5.jpg' height='90'> <img     src='G_9.jpg' height='90'> <img     src='G_1.jpg' height='90'> <img     src='G_7.jpg' height='90'>","null","Animation1",""
"","","","","","html-keyboard-response","107","229628","0.0-88.0","20","1","2025-01-22 20:08:36","6073afb29c8d06c5d8f22ae9f1371ff8","130.91.127.46","Mozilla/5.0 (Windows NT 10.0; Win64; x64) AppleWebKit/537.36 (KHTML, like Gecko) Chrome/132.0.0.0 Safari/537.36","WebKit","Chrome","132.0.0.0","Windows","10.0","https://app.prolific.com/","en-US,en;q=0.9","5d13a30cc4806c00191ecd36","679147d2997803490f072fae","6791502e65484f3e439730c2","","2972","[""Did you notice any patterns? <br><br>Press Enter to watch that example again and follow the steps of Omgne Sort.""]","enter","",""
"","","","","","html-button-response","108","230044","0.0-89.0","20","1","2025-01-22 20:08:36","6073afb29c8d06c5d8f22ae9f1371ff8","130.91.127.46","Mozilla/5.0 (Windows NT 10.0; Win64; x64) AppleWebKit/537.36 (KHTML, like Gecko) Chrome/132.0.0.0 Safari/537.36","WebKit","Chrome","132.0.0.0","Windows","10.0","https://app.prolific.com/","en-US,en;q=0.9","5d13a30cc4806c00191ecd36","679147d2997803490f072fae","6791502e65484f3e439730c2","","null","<img id='selected' src='G_7.jpg' height='90'> <img src='G_1.jpg' height='90'> <img src='G_9.jpg' height='90'> <img src='G_5.jpg' height='90'> <img src='G_3.jpg' height='90'>","null","Learning example 1",""
"","","","","","html-button-response","109","230353","0.0-90.0","20","1","2025-01-22 20:08:36","6073afb29c8d06c5d8f22ae9f1371ff8","130.91.127.46","Mozilla/5.0 (Windows NT 10.0; Win64; x64) AppleWebKit/537.36 (KHTML, like Gecko) Chrome/132.0.0.0 Safari/537.36","WebKit","Chrome","132.0.0.0","Windows","10.0","https://app.prolific.com/","en-US,en;q=0.9","5d13a30cc4806c00191ecd36","679147d2997803490f072fae","6791502e65484f3e439730c2","","null","<img id='selected' src='G_7.jpg' height='90'> <img id='selected' src='G_1.jpg' height='90'> <img src='G_9.jpg' height='90'> <img src='G_5.jpg' height='90'> <img src='G_3.jpg' height='90'>","null","Learning example 1",""
"","","","","","html-button-response","110","230659","0.0-91.0","20","1","2025-01-22 20:08:36","6073afb29c8d06c5d8f22ae9f1371ff8","130.91.127.46","Mozilla/5.0 (Windows NT 10.0; Win64; x64) AppleWebKit/537.36 (KHTML, like Gecko) Chrome/132.0.0.0 Safari/537.36","WebKit","Chrome","132.0.0.0","Windows","10.0","https://app.prolific.com/","en-US,en;q=0.9","5d13a30cc4806c00191ecd36","679147d2997803490f072fae","6791502e65484f3e439730c2","","null","<img id='swapped' src='G_1.jpg' height='90'> <img id='swapped' src='G_7.jpg' height='90'> <img src='G_9.jpg' height='90'> <img src='G_5.jpg' height='90'> <img src='G_3.jpg' height='90'>","null","Learning example 1",""
"","","","","","html-button-response","111","234465","0.0-92.0-0.0-0.0","20","1","2025-01-22 20:08:36","6073afb29c8d06c5d8f22ae9f1371ff8","130.91.127.46","Mozilla/5.0 (Windows NT 10.0; Win64; x64) AppleWebKit/537.36 (KHTML, like Gecko) Chrome/132.0.0.0 Safari/537.36","WebKit","Chrome","132.0.0.0","Windows","10.0","https://app.prolific.com/","en-US,en;q=0.9","5d13a30cc4806c00191ecd36","679147d2997803490f072fae","6791502e65484f3e439730c2","","3801","<img id='swapped' src='G_1.jpg' height='90'> <img id='swapped' src='G_7.jpg' height='90'> <img src='G_9.jpg' height='90'> <img src='G_5.jpg' height='90'> <img src='G_3.jpg' height='90'>","1","Learning example 1",""
"","","","","","html-button-response","112","235401","0.0-92.1-0.1-0.1","20","1","2025-01-22 20:08:36","6073afb29c8d06c5d8f22ae9f1371ff8","130.91.127.46","Mozilla/5.0 (Windows NT 10.0; Win64; x64) AppleWebKit/537.36 (KHTML, like Gecko) Chrome/132.0.0.0 Safari/537.36","WebKit","Chrome","132.0.0.0","Windows","10.0","https://app.prolific.com/","en-US,en;q=0.9","5d13a30cc4806c00191ecd36","679147d2997803490f072fae","6791502e65484f3e439730c2","","932","<img id='swapped' src='G_1.jpg' height='90'> <img id='swapped' src='G_7.jpg' height='90'> <img src='G_9.jpg' height='90'> <img src='G_5.jpg' height='90'> <img src='G_3.jpg' height='90'>","0","Learning example 1",""
"","","","","","html-button-response","113","235607","0.0-93.0","20","1","2025-01-22 20:08:36","6073afb29c8d06c5d8f22ae9f1371ff8","130.91.127.46","Mozilla/5.0 (Windows NT 10.0; Win64; x64) AppleWebKit/537.36 (KHTML, like Gecko) Chrome/132.0.0.0 Safari/537.36","WebKit","Chrome","132.0.0.0","Windows","10.0","https://app.prolific.com/","en-US,en;q=0.9","5d13a30cc4806c00191ecd36","679147d2997803490f072fae","6791502e65484f3e439730c2","","null","<img  src='G_1.jpg' height='90'> <img  src='G_7.jpg' height='90'> <img src='G_9.jpg' height='90'> <img src='G_5.jpg' height='90'> <img src='G_3.jpg' height='90'>","null","Learning example 1",""
"","","","","","html-button-response","114","236012","0.0-94.0","20","1","2025-01-22 20:08:36","6073afb29c8d06c5d8f22ae9f1371ff8","130.91.127.46","Mozilla/5.0 (Windows NT 10.0; Win64; x64) AppleWebKit/537.36 (KHTML, like Gecko) Chrome/132.0.0.0 Safari/537.36","WebKit","Chrome","132.0.0.0","Windows","10.0","https://app.prolific.com/","en-US,en;q=0.9","5d13a30cc4806c00191ecd36","679147d2997803490f072fae","6791502e65484f3e439730c2","","null","<img  src='G_1.jpg' height='90'> <img id='selected'  src='G_7.jpg' height='90'> <img src='G_9.jpg' height='90'> <img src='G_5.jpg' height='90'> <img src='G_3.jpg' height='90'>","null","Learning example 1",""
"","","","","","html-button-response","115","236325","0.0-95.0","20","1","2025-01-22 20:08:36","6073afb29c8d06c5d8f22ae9f1371ff8","130.91.127.46","Mozilla/5.0 (Windows NT 10.0; Win64; x64) AppleWebKit/537.36 (KHTML, like Gecko) Chrome/132.0.0.0 Safari/537.36","WebKit","Chrome","132.0.0.0","Windows","10.0","https://app.prolific.com/","en-US,en;q=0.9","5d13a30cc4806c00191ecd36","679147d2997803490f072fae","6791502e65484f3e439730c2","","null","<img  src='G_1.jpg' height='90'> <img id='selected'  src='G_7.jpg' height='90'> <img id='selected' src='G_9.jpg' height='90'> <img src='G_5.jpg' height='90'> <img src='G_3.jpg' height='90'>","null","Learning example 1",""
"","","","","","html-button-response","116","236631","0.0-96.0","20","1","2025-01-22 20:08:36","6073afb29c8d06c5d8f22ae9f1371ff8","130.91.127.46","Mozilla/5.0 (Windows NT 10.0; Win64; x64) AppleWebKit/537.36 (KHTML, like Gecko) Chrome/132.0.0.0 Safari/537.36","WebKit","Chrome","132.0.0.0","Windows","10.0","https://app.prolific.com/","en-US,en;q=0.9","5d13a30cc4806c00191ecd36","679147d2997803490f072fae","6791502e65484f3e439730c2","","null","<img  src='G_1.jpg' height='90'> <img id='swapped' src='G_9.jpg' height='90'> <img id='swapped'  src='G_7.jpg' height='90'> <img src='G_5.jpg' height='90'> <img src='G_3.jpg' height='90'>","null","Learning example 1",""
"","","","","","html-button-response","117","237102","0.0-97.0-0.0-0.0","20","1","2025-01-22 20:08:36","6073afb29c8d06c5d8f22ae9f1371ff8","130.91.127.46","Mozilla/5.0 (Windows NT 10.0; Win64; x64) AppleWebKit/537.36 (KHTML, like Gecko) Chrome/132.0.0.0 Safari/537.36","WebKit","Chrome","132.0.0.0","Windows","10.0","https://app.prolific.com/","en-US,en;q=0.9","5d13a30cc4806c00191ecd36","679147d2997803490f072fae","6791502e65484f3e439730c2","","465","<img  src='G_1.jpg' height='90'> <img id='swapped' src='G_9.jpg' height='90'> <img id='swapped'  src='G_7.jpg' height='90'> <img src='G_5.jpg' height='90'> <img src='G_3.jpg' height='90'>","1","Learning example 1",""
"","","","","","html-button-response","118","238651","0.0-97.1-0.1-0.1","20","1","2025-01-22 20:08:36","6073afb29c8d06c5d8f22ae9f1371ff8","130.91.127.46","Mozilla/5.0 (Windows NT 10.0; Win64; x64) AppleWebKit/537.36 (KHTML, like Gecko) Chrome/132.0.0.0 Safari/537.36","WebKit","Chrome","132.0.0.0","Windows","10.0","https://app.prolific.com/","en-US,en;q=0.9","5d13a30cc4806c00191ecd36","679147d2997803490f072fae","6791502e65484f3e439730c2","","1543","<img  src='G_1.jpg' height='90'> <img id='swapped' src='G_9.jpg' height='90'> <img id='swapped'  src='G_7.jpg' height='90'> <img src='G_5.jpg' height='90'> <img src='G_3.jpg' height='90'>","2","Learning example 1",""
"","","","","","html-button-response","119","238866","0.0-98.0","20","1","2025-01-22 20:08:36","6073afb29c8d06c5d8f22ae9f1371ff8","130.91.127.46","Mozilla/5.0 (Windows NT 10.0; Win64; x64) AppleWebKit/537.36 (KHTML, like Gecko) Chrome/132.0.0.0 Safari/537.36","WebKit","Chrome","132.0.0.0","Windows","10.0","https://app.prolific.com/","en-US,en;q=0.9","5d13a30cc4806c00191ecd36","679147d2997803490f072fae","6791502e65484f3e439730c2","","null","<img  src='G_1.jpg' height='90'> <img  src='G_9.jpg' height='90'> <img   src='G_7.jpg' height='90'> <img src='G_5.jpg' height='90'> <img src='G_3.jpg' height='90'>","null","Learning example 1",""
"","","","","","html-button-response","120","239273","0.0-99.0","20","1","2025-01-22 20:08:36","6073afb29c8d06c5d8f22ae9f1371ff8","130.91.127.46","Mozilla/5.0 (Windows NT 10.0; Win64; x64) AppleWebKit/537.36 (KHTML, like Gecko) Chrome/132.0.0.0 Safari/537.36","WebKit","Chrome","132.0.0.0","Windows","10.0","https://app.prolific.com/","en-US,en;q=0.9","5d13a30cc4806c00191ecd36","679147d2997803490f072fae","6791502e65484f3e439730c2","","null","<img id='selected'  src='G_1.jpg' height='90'> <img  src='G_9.jpg' height='90'> <img   src='G_7.jpg' height='90'> <img src='G_5.jpg' height='90'> <img src='G_3.jpg' height='90'>","null","Learning example 1",""
"","","","","","html-button-response","121","239579","0.0-100.0","20","1","2025-01-22 20:08:36","6073afb29c8d06c5d8f22ae9f1371ff8","130.91.127.46","Mozilla/5.0 (Windows NT 10.0; Win64; x64) AppleWebKit/537.36 (KHTML, like Gecko) Chrome/132.0.0.0 Safari/537.36","WebKit","Chrome","132.0.0.0","Windows","10.0","https://app.prolific.com/","en-US,en;q=0.9","5d13a30cc4806c00191ecd36","679147d2997803490f072fae","6791502e65484f3e439730c2","","null","<img id='selected'  src='G_1.jpg' height='90'> <img id='selected'  src='G_9.jpg' height='90'> <img   src='G_7.jpg' height='90'> <img src='G_5.jpg' height='90'> <img src='G_3.jpg' height='90'>","null","Learning example 1",""
"","","","","","html-button-response","122","239770","0.0-101.0","20","1","2025-01-22 20:08:36","6073afb29c8d06c5d8f22ae9f1371ff8","130.91.127.46","Mozilla/5.0 (Windows NT 10.0; Win64; x64) AppleWebKit/537.36 (KHTML, like Gecko) Chrome/132.0.0.0 Safari/537.36","WebKit","Chrome","132.0.0.0","Windows","10.0","https://app.prolific.com/","en-US,en;q=0.9","5d13a30cc4806c00191ecd36","679147d2997803490f072fae","6791502e65484f3e439730c2","","185","<img id='swapped'  src='G_9.jpg' height='90'> <img id='swapped'  src='G_1.jpg' height='90'> <img   src='G_7.jpg' height='90'> <img src='G_5.jpg' height='90'> <img src='G_3.jpg' height='90'>","2","Learning example 1",""
"","","","","","html-button-response","123","240161","0.0-102.0-0.0-0.0","20","1","2025-01-22 20:08:36","6073afb29c8d06c5d8f22ae9f1371ff8","130.91.127.46","Mozilla/5.0 (Windows NT 10.0; Win64; x64) AppleWebKit/537.36 (KHTML, like Gecko) Chrome/132.0.0.0 Safari/537.36","WebKit","Chrome","132.0.0.0","Windows","10.0","https://app.prolific.com/","en-US,en;q=0.9","5d13a30cc4806c00191ecd36","679147d2997803490f072fae","6791502e65484f3e439730c2","","388","<img id='swapped'  src='G_9.jpg' height='90'> <img id='swapped'  src='G_1.jpg' height='90'> <img   src='G_7.jpg' height='90'> <img src='G_5.jpg' height='90'> <img src='G_3.jpg' height='90'>","3","Learning example 1",""
"","","","","","html-button-response","124","242176","0.0-102.1-0.1-0.1","20","1","2025-01-22 20:08:36","6073afb29c8d06c5d8f22ae9f1371ff8","130.91.127.46","Mozilla/5.0 (Windows NT 10.0; Win64; x64) AppleWebKit/537.36 (KHTML, like Gecko) Chrome/132.0.0.0 Safari/537.36","WebKit","Chrome","132.0.0.0","Windows","10.0","https://app.prolific.com/","en-US,en;q=0.9","5d13a30cc4806c00191ecd36","679147d2997803490f072fae","6791502e65484f3e439730c2","","2010","<img id='swapped'  src='G_9.jpg' height='90'> <img id='swapped'  src='G_1.jpg' height='90'> <img   src='G_7.jpg' height='90'> <img src='G_5.jpg' height='90'> <img src='G_3.jpg' height='90'>","0","Learning example 1",""
"","","","","","html-button-response","125","243624","0.0-102.2-0.2-0.2","20","1","2025-01-22 20:08:36","6073afb29c8d06c5d8f22ae9f1371ff8","130.91.127.46","Mozilla/5.0 (Windows NT 10.0; Win64; x64) AppleWebKit/537.36 (KHTML, like Gecko) Chrome/132.0.0.0 Safari/537.36","WebKit","Chrome","132.0.0.0","Windows","10.0","https://app.prolific.com/","en-US,en;q=0.9","5d13a30cc4806c00191ecd36","679147d2997803490f072fae","6791502e65484f3e439730c2","","1445","<img id='swapped'  src='G_9.jpg' height='90'> <img id='swapped'  src='G_1.jpg' height='90'> <img   src='G_7.jpg' height='90'> <img src='G_5.jpg' height='90'> <img src='G_3.jpg' height='90'>","1","Learning example 1",""
"","","","","","html-button-response","126","243830","0.0-103.0","20","1","2025-01-22 20:08:36","6073afb29c8d06c5d8f22ae9f1371ff8","130.91.127.46","Mozilla/5.0 (Windows NT 10.0; Win64; x64) AppleWebKit/537.36 (KHTML, like Gecko) Chrome/132.0.0.0 Safari/537.36","WebKit","Chrome","132.0.0.0","Windows","10.0","https://app.prolific.com/","en-US,en;q=0.9","5d13a30cc4806c00191ecd36","679147d2997803490f072fae","6791502e65484f3e439730c2","","null","<img   src='G_9.jpg' height='90'> <img   src='G_1.jpg' height='90'> <img   src='G_7.jpg' height='90'> <img src='G_5.jpg' height='90'> <img src='G_3.jpg' height='90'>","null","Learning example 1",""
"","","","","","html-button-response","127","244235","0.0-104.0","20","1","2025-01-22 20:08:36","6073afb29c8d06c5d8f22ae9f1371ff8","130.91.127.46","Mozilla/5.0 (Windows NT 10.0; Win64; x64) AppleWebKit/537.36 (KHTML, like Gecko) Chrome/132.0.0.0 Safari/537.36","WebKit","Chrome","132.0.0.0","Windows","10.0","https://app.prolific.com/","en-US,en;q=0.9","5d13a30cc4806c00191ecd36","679147d2997803490f072fae","6791502e65484f3e439730c2","","null","<img   src='G_9.jpg' height='90'> <img   src='G_1.jpg' height='90'> <img id='selected'   src='G_7.jpg' height='90'> <img src='G_5.jpg' height='90'> <img src='G_3.jpg' height='90'>","null","Learning example 1",""
"","","","","","html-button-response","128","244539","0.0-105.0","20","1","2025-01-22 20:08:36","6073afb29c8d06c5d8f22ae9f1371ff8","130.91.127.46","Mozilla/5.0 (Windows NT 10.0; Win64; x64) AppleWebKit/537.36 (KHTML, like Gecko) Chrome/132.0.0.0 Safari/537.36","WebKit","Chrome","132.0.0.0","Windows","10.0","https://app.prolific.com/","en-US,en;q=0.9","5d13a30cc4806c00191ecd36","679147d2997803490f072fae","6791502e65484f3e439730c2","","null","<img   src='G_9.jpg' height='90'> <img   src='G_1.jpg' height='90'> <img id='selected'   src='G_7.jpg' height='90'> <img id='selected' src='G_5.jpg' height='90'> <img src='G_3.jpg' height='90'>","null","Learning example 1",""
"","","","","","html-button-response","129","244844","0.0-106.0","20","1","2025-01-22 20:08:36","6073afb29c8d06c5d8f22ae9f1371ff8","130.91.127.46","Mozilla/5.0 (Windows NT 10.0; Win64; x64) AppleWebKit/537.36 (KHTML, like Gecko) Chrome/132.0.0.0 Safari/537.36","WebKit","Chrome","132.0.0.0","Windows","10.0","https://app.prolific.com/","en-US,en;q=0.9","5d13a30cc4806c00191ecd36","679147d2997803490f072fae","6791502e65484f3e439730c2","","null","<img   src='G_9.jpg' height='90'> <img   src='G_1.jpg' height='90'> <img id='swapped' src='G_5.jpg' height='90'> <img id='swapped'   src='G_7.jpg' height='90'> <img src='G_3.jpg' height='90'>","null","Learning example 1",""
"","","","","","html-button-response","130","245660","0.0-107.0-0.0-0.0","20","1","2025-01-22 20:08:36","6073afb29c8d06c5d8f22ae9f1371ff8","130.91.127.46","Mozilla/5.0 (Windows NT 10.0; Win64; x64) AppleWebKit/537.36 (KHTML, like Gecko) Chrome/132.0.0.0 Safari/537.36","WebKit","Chrome","132.0.0.0","Windows","10.0","https://app.prolific.com/","en-US,en;q=0.9","5d13a30cc4806c00191ecd36","679147d2997803490f072fae","6791502e65484f3e439730c2","","809","<img   src='G_9.jpg' height='90'> <img   src='G_1.jpg' height='90'> <img id='swapped' src='G_5.jpg' height='90'> <img id='swapped'   src='G_7.jpg' height='90'> <img src='G_3.jpg' height='90'>","2","Learning example 1",""
"","","","","","html-button-response","131","246006","0.0-107.1-0.1-0.1","20","1","2025-01-22 20:08:36","6073afb29c8d06c5d8f22ae9f1371ff8","130.91.127.46","Mozilla/5.0 (Windows NT 10.0; Win64; x64) AppleWebKit/537.36 (KHTML, like Gecko) Chrome/132.0.0.0 Safari/537.36","WebKit","Chrome","132.0.0.0","Windows","10.0","https://app.prolific.com/","en-US,en;q=0.9","5d13a30cc4806c00191ecd36","679147d2997803490f072fae","6791502e65484f3e439730c2","","344","<img   src='G_9.jpg' height='90'> <img   src='G_1.jpg' height='90'> <img id='swapped' src='G_5.jpg' height='90'> <img id='swapped'   src='G_7.jpg' height='90'> <img src='G_3.jpg' height='90'>","3","Learning example 1",""
"","","","","","html-button-response","132","246211","0.0-108.0","20","1","2025-01-22 20:08:36","6073afb29c8d06c5d8f22ae9f1371ff8","130.91.127.46","Mozilla/5.0 (Windows NT 10.0; Win64; x64) AppleWebKit/537.36 (KHTML, like Gecko) Chrome/132.0.0.0 Safari/537.36","WebKit","Chrome","132.0.0.0","Windows","10.0","https://app.prolific.com/","en-US,en;q=0.9","5d13a30cc4806c00191ecd36","679147d2997803490f072fae","6791502e65484f3e439730c2","","null","<img   src='G_9.jpg' height='90'> <img   src='G_1.jpg' height='90'> <img  src='G_5.jpg' height='90'> <img    src='G_7.jpg' height='90'> <img src='G_3.jpg' height='90'>","null","Learning example 1",""
"","","","","","html-button-response","133","246621","0.0-109.0","20","1","2025-01-22 20:08:36","6073afb29c8d06c5d8f22ae9f1371ff8","130.91.127.46","Mozilla/5.0 (Windows NT 10.0; Win64; x64) AppleWebKit/537.36 (KHTML, like Gecko) Chrome/132.0.0.0 Safari/537.36","WebKit","Chrome","132.0.0.0","Windows","10.0","https://app.prolific.com/","en-US,en;q=0.9","5d13a30cc4806c00191ecd36","679147d2997803490f072fae","6791502e65484f3e439730c2","","null","<img   src='G_9.jpg' height='90'> <img id='selected'   src='G_1.jpg' height='90'> <img  src='G_5.jpg' height='90'> <img    src='G_7.jpg' height='90'> <img src='G_3.jpg' height='90'>","null","Learning example 1",""
"","","","","","html-button-response","134","246927","0.0-110.0","20","1","2025-01-22 20:08:36","6073afb29c8d06c5d8f22ae9f1371ff8","130.91.127.46","Mozilla/5.0 (Windows NT 10.0; Win64; x64) AppleWebKit/537.36 (KHTML, like Gecko) Chrome/132.0.0.0 Safari/537.36","WebKit","Chrome","132.0.0.0","Windows","10.0","https://app.prolific.com/","en-US,en;q=0.9","5d13a30cc4806c00191ecd36","679147d2997803490f072fae","6791502e65484f3e439730c2","","null","<img   src='G_9.jpg' height='90'> <img id='selected'   src='G_1.jpg' height='90'> <img id='selected'  src='G_5.jpg' height='90'> <img    src='G_7.jpg' height='90'> <img src='G_3.jpg' height='90'>","null","Learning example 1",""
"","","","","","html-button-response","135","247234","0.0-111.0","20","1","2025-01-22 20:08:36","6073afb29c8d06c5d8f22ae9f1371ff8","130.91.127.46","Mozilla/5.0 (Windows NT 10.0; Win64; x64) AppleWebKit/537.36 (KHTML, like Gecko) Chrome/132.0.0.0 Safari/537.36","WebKit","Chrome","132.0.0.0","Windows","10.0","https://app.prolific.com/","en-US,en;q=0.9","5d13a30cc4806c00191ecd36","679147d2997803490f072fae","6791502e65484f3e439730c2","","null","<img   src='G_9.jpg' height='90'> <img id='swapped'  src='G_5.jpg' height='90'> <img id='swapped'   src='G_1.jpg' height='90'> <img    src='G_7.jpg' height='90'> <img src='G_3.jpg' height='90'>","null","Learning example 1",""
"","","","","","html-button-response","136","247725","0.0-112.0-0.0-0.0","20","1","2025-01-22 20:08:36","6073afb29c8d06c5d8f22ae9f1371ff8","130.91.127.46","Mozilla/5.0 (Windows NT 10.0; Win64; x64) AppleWebKit/537.36 (KHTML, like Gecko) Chrome/132.0.0.0 Safari/537.36","WebKit","Chrome","132.0.0.0","Windows","10.0","https://app.prolific.com/","en-US,en;q=0.9","5d13a30cc4806c00191ecd36","679147d2997803490f072fae","6791502e65484f3e439730c2","","483","<img   src='G_9.jpg' height='90'> <img id='swapped'  src='G_5.jpg' height='90'> <img id='swapped'   src='G_1.jpg' height='90'> <img    src='G_7.jpg' height='90'> <img src='G_3.jpg' height='90'>","2","Learning example 1",""
"","","","","","html-button-response","137","248453","0.0-112.1-0.1-0.1","20","1","2025-01-22 20:08:36","6073afb29c8d06c5d8f22ae9f1371ff8","130.91.127.46","Mozilla/5.0 (Windows NT 10.0; Win64; x64) AppleWebKit/537.36 (KHTML, like Gecko) Chrome/132.0.0.0 Safari/537.36","WebKit","Chrome","132.0.0.0","Windows","10.0","https://app.prolific.com/","en-US,en;q=0.9","5d13a30cc4806c00191ecd36","679147d2997803490f072fae","6791502e65484f3e439730c2","","724","<img   src='G_9.jpg' height='90'> <img id='swapped'  src='G_5.jpg' height='90'> <img id='swapped'   src='G_1.jpg' height='90'> <img    src='G_7.jpg' height='90'> <img src='G_3.jpg' height='90'>","1","Learning example 1",""
"","","","","","html-button-response","138","248670","0.0-113.0","20","1","2025-01-22 20:08:36","6073afb29c8d06c5d8f22ae9f1371ff8","130.91.127.46","Mozilla/5.0 (Windows NT 10.0; Win64; x64) AppleWebKit/537.36 (KHTML, like Gecko) Chrome/132.0.0.0 Safari/537.36","WebKit","Chrome","132.0.0.0","Windows","10.0","https://app.prolific.com/","en-US,en;q=0.9","5d13a30cc4806c00191ecd36","679147d2997803490f072fae","6791502e65484f3e439730c2","","null","<img   src='G_9.jpg' height='90'> <img   src='G_5.jpg' height='90'> <img    src='G_1.jpg' height='90'> <img    src='G_7.jpg' height='90'> <img src='G_3.jpg' height='90'>","null","Learning example 1",""
"","","","","","html-button-response","139","249075","0.0-114.0","20","1","2025-01-22 20:08:36","6073afb29c8d06c5d8f22ae9f1371ff8","130.91.127.46","Mozilla/5.0 (Windows NT 10.0; Win64; x64) AppleWebKit/537.36 (KHTML, like Gecko) Chrome/132.0.0.0 Safari/537.36","WebKit","Chrome","132.0.0.0","Windows","10.0","https://app.prolific.com/","en-US,en;q=0.9","5d13a30cc4806c00191ecd36","679147d2997803490f072fae","6791502e65484f3e439730c2","","null","<img id='selected'   src='G_9.jpg' height='90'> <img   src='G_5.jpg' height='90'> <img    src='G_1.jpg' height='90'> <img    src='G_7.jpg' height='90'> <img src='G_3.jpg' height='90'>","null","Learning example 1",""
"","","","","","html-button-response","140","249379","0.0-115.0","20","1","2025-01-22 20:08:36","6073afb29c8d06c5d8f22ae9f1371ff8","130.91.127.46","Mozilla/5.0 (Windows NT 10.0; Win64; x64) AppleWebKit/537.36 (KHTML, like Gecko) Chrome/132.0.0.0 Safari/537.36","WebKit","Chrome","132.0.0.0","Windows","10.0","https://app.prolific.com/","en-US,en;q=0.9","5d13a30cc4806c00191ecd36","679147d2997803490f072fae","6791502e65484f3e439730c2","","null","<img id='selected'   src='G_9.jpg' height='90'> <img id='selected'   src='G_5.jpg' height='90'> <img    src='G_1.jpg' height='90'> <img    src='G_7.jpg' height='90'> <img src='G_3.jpg' height='90'>","null","Learning example 1",""
"","","","","","html-button-response","141","249687","0.0-116.0","20","1","2025-01-22 20:08:36","6073afb29c8d06c5d8f22ae9f1371ff8","130.91.127.46","Mozilla/5.0 (Windows NT 10.0; Win64; x64) AppleWebKit/537.36 (KHTML, like Gecko) Chrome/132.0.0.0 Safari/537.36","WebKit","Chrome","132.0.0.0","Windows","10.0","https://app.prolific.com/","en-US,en;q=0.9","5d13a30cc4806c00191ecd36","679147d2997803490f072fae","6791502e65484f3e439730c2","","null","<img id='swapped'   src='G_5.jpg' height='90'> <img id='swapped'   src='G_9.jpg' height='90'> <img    src='G_1.jpg' height='90'> <img    src='G_7.jpg' height='90'> <img src='G_3.jpg' height='90'>","null","Learning example 1",""
"","","","","","html-button-response","142","250285","0.0-117.0-0.0-0.0","20","1","2025-01-22 20:08:36","6073afb29c8d06c5d8f22ae9f1371ff8","130.91.127.46","Mozilla/5.0 (Windows NT 10.0; Win64; x64) AppleWebKit/537.36 (KHTML, like Gecko) Chrome/132.0.0.0 Safari/537.36","WebKit","Chrome","132.0.0.0","Windows","10.0","https://app.prolific.com/","en-US,en;q=0.9","5d13a30cc4806c00191ecd36","679147d2997803490f072fae","6791502e65484f3e439730c2","","594","<img id='swapped'   src='G_5.jpg' height='90'> <img id='swapped'   src='G_9.jpg' height='90'> <img    src='G_1.jpg' height='90'> <img    src='G_7.jpg' height='90'> <img src='G_3.jpg' height='90'>","0","Learning example 1",""
"","","","","","html-button-response","143","250636","0.0-117.1-0.1-0.1","20","1","2025-01-22 20:08:36","6073afb29c8d06c5d8f22ae9f1371ff8","130.91.127.46","Mozilla/5.0 (Windows NT 10.0; Win64; x64) AppleWebKit/537.36 (KHTML, like Gecko) Chrome/132.0.0.0 Safari/537.36","WebKit","Chrome","132.0.0.0","Windows","10.0","https://app.prolific.com/","en-US,en;q=0.9","5d13a30cc4806c00191ecd36","679147d2997803490f072fae","6791502e65484f3e439730c2","","345","<img id='swapped'   src='G_5.jpg' height='90'> <img id='swapped'   src='G_9.jpg' height='90'> <img    src='G_1.jpg' height='90'> <img    src='G_7.jpg' height='90'> <img src='G_3.jpg' height='90'>","1","Learning example 1",""
"","","","","","html-button-response","144","250850","0.0-118.0","20","1","2025-01-22 20:08:36","6073afb29c8d06c5d8f22ae9f1371ff8","130.91.127.46","Mozilla/5.0 (Windows NT 10.0; Win64; x64) AppleWebKit/537.36 (KHTML, like Gecko) Chrome/132.0.0.0 Safari/537.36","WebKit","Chrome","132.0.0.0","Windows","10.0","https://app.prolific.com/","en-US,en;q=0.9","5d13a30cc4806c00191ecd36","679147d2997803490f072fae","6791502e65484f3e439730c2","","null","<img    src='G_5.jpg' height='90'> <img    src='G_9.jpg' height='90'> <img    src='G_1.jpg' height='90'> <img    src='G_7.jpg' height='90'> <img src='G_3.jpg' height='90'>","null","Learning example 1",""
"","","","","","html-button-response","145","251257","0.0-119.0","20","1","2025-01-22 20:08:36","6073afb29c8d06c5d8f22ae9f1371ff8","130.91.127.46","Mozilla/5.0 (Windows NT 10.0; Win64; x64) AppleWebKit/537.36 (KHTML, like Gecko) Chrome/132.0.0.0 Safari/537.36","WebKit","Chrome","132.0.0.0","Windows","10.0","https://app.prolific.com/","en-US,en;q=0.9","5d13a30cc4806c00191ecd36","679147d2997803490f072fae","6791502e65484f3e439730c2","","null","<img    src='G_5.jpg' height='90'> <img    src='G_9.jpg' height='90'> <img    src='G_1.jpg' height='90'> <img id='selected'    src='G_7.jpg' height='90'> <img src='G_3.jpg' height='90'>","null","Learning example 1",""
"","","","","","html-button-response","146","251564","0.0-120.0","20","1","2025-01-22 20:08:36","6073afb29c8d06c5d8f22ae9f1371ff8","130.91.127.46","Mozilla/5.0 (Windows NT 10.0; Win64; x64) AppleWebKit/537.36 (KHTML, like Gecko) Chrome/132.0.0.0 Safari/537.36","WebKit","Chrome","132.0.0.0","Windows","10.0","https://app.prolific.com/","en-US,en;q=0.9","5d13a30cc4806c00191ecd36","679147d2997803490f072fae","6791502e65484f3e439730c2","","null","<img    src='G_5.jpg' height='90'> <img    src='G_9.jpg' height='90'> <img    src='G_1.jpg' height='90'> <img id='selected'    src='G_7.jpg' height='90'> <img id='selected' src='G_3.jpg' height='90'>","null","Learning example 1",""
"","","","","","html-button-response","147","251872","0.0-121.0","20","1","2025-01-22 20:08:36","6073afb29c8d06c5d8f22ae9f1371ff8","130.91.127.46","Mozilla/5.0 (Windows NT 10.0; Win64; x64) AppleWebKit/537.36 (KHTML, like Gecko) Chrome/132.0.0.0 Safari/537.36","WebKit","Chrome","132.0.0.0","Windows","10.0","https://app.prolific.com/","en-US,en;q=0.9","5d13a30cc4806c00191ecd36","679147d2997803490f072fae","6791502e65484f3e439730c2","","null","<img    src='G_5.jpg' height='90'> <img    src='G_9.jpg' height='90'> <img    src='G_1.jpg' height='90'> <img id='swapped' src='G_3.jpg' height='90'> <img id='swapped'    src='G_7.jpg' height='90'>","null","Learning example 1",""
"","","","","","html-button-response","148","253260","0.0-122.0-0.0-0.0","20","1","2025-01-22 20:08:36","6073afb29c8d06c5d8f22ae9f1371ff8","130.91.127.46","Mozilla/5.0 (Windows NT 10.0; Win64; x64) AppleWebKit/537.36 (KHTML, like Gecko) Chrome/132.0.0.0 Safari/537.36","WebKit","Chrome","132.0.0.0","Windows","10.0","https://app.prolific.com/","en-US,en;q=0.9","5d13a30cc4806c00191ecd36","679147d2997803490f072fae","6791502e65484f3e439730c2","","1381","<img    src='G_5.jpg' height='90'> <img    src='G_9.jpg' height='90'> <img    src='G_1.jpg' height='90'> <img id='swapped' src='G_3.jpg' height='90'> <img id='swapped'    src='G_7.jpg' height='90'>","3","Learning example 1",""
"","","","","","html-button-response","149","253659","0.0-122.1-0.1-0.1","20","1","2025-01-22 20:08:36","6073afb29c8d06c5d8f22ae9f1371ff8","130.91.127.46","Mozilla/5.0 (Windows NT 10.0; Win64; x64) AppleWebKit/537.36 (KHTML, like Gecko) Chrome/132.0.0.0 Safari/537.36","WebKit","Chrome","132.0.0.0","Windows","10.0","https://app.prolific.com/","en-US,en;q=0.9","5d13a30cc4806c00191ecd36","679147d2997803490f072fae","6791502e65484f3e439730c2","","393","<img    src='G_5.jpg' height='90'> <img    src='G_9.jpg' height='90'> <img    src='G_1.jpg' height='90'> <img id='swapped' src='G_3.jpg' height='90'> <img id='swapped'    src='G_7.jpg' height='90'>","4","Learning example 1",""
"","","","","","html-button-response","150","253864","0.0-123.0","20","1","2025-01-22 20:08:36","6073afb29c8d06c5d8f22ae9f1371ff8","130.91.127.46","Mozilla/5.0 (Windows NT 10.0; Win64; x64) AppleWebKit/537.36 (KHTML, like Gecko) Chrome/132.0.0.0 Safari/537.36","WebKit","Chrome","132.0.0.0","Windows","10.0","https://app.prolific.com/","en-US,en;q=0.9","5d13a30cc4806c00191ecd36","679147d2997803490f072fae","6791502e65484f3e439730c2","","null","<img    src='G_5.jpg' height='90'> <img    src='G_9.jpg' height='90'> <img    src='G_1.jpg' height='90'> <img  src='G_3.jpg' height='90'> <img     src='G_7.jpg' height='90'>","null","Learning example 1",""
"","","","","","html-button-response","151","254277","0.0-124.0","20","1","2025-01-22 20:08:36","6073afb29c8d06c5d8f22ae9f1371ff8","130.91.127.46","Mozilla/5.0 (Windows NT 10.0; Win64; x64) AppleWebKit/537.36 (KHTML, like Gecko) Chrome/132.0.0.0 Safari/537.36","WebKit","Chrome","132.0.0.0","Windows","10.0","https://app.prolific.com/","en-US,en;q=0.9","5d13a30cc4806c00191ecd36","679147d2997803490f072fae","6791502e65484f3e439730c2","","null","<img    src='G_5.jpg' height='90'> <img    src='G_9.jpg' height='90'> <img id='selected'    src='G_1.jpg' height='90'> <img  src='G_3.jpg' height='90'> <img     src='G_7.jpg' height='90'>","null","Learning example 1",""
"","","","","","html-button-response","152","254590","0.0-125.0","20","1","2025-01-22 20:08:36","6073afb29c8d06c5d8f22ae9f1371ff8","130.91.127.46","Mozilla/5.0 (Windows NT 10.0; Win64; x64) AppleWebKit/537.36 (KHTML, like Gecko) Chrome/132.0.0.0 Safari/537.36","WebKit","Chrome","132.0.0.0","Windows","10.0","https://app.prolific.com/","en-US,en;q=0.9","5d13a30cc4806c00191ecd36","679147d2997803490f072fae","6791502e65484f3e439730c2","","null","<img    src='G_5.jpg' height='90'> <img    src='G_9.jpg' height='90'> <img id='selected'    src='G_1.jpg' height='90'> <img id='selected'  src='G_3.jpg' height='90'> <img     src='G_7.jpg' height='90'>","null","Learning example 1",""
"","","","","","html-button-response","153","254900","0.0-126.0","20","1","2025-01-22 20:08:36","6073afb29c8d06c5d8f22ae9f1371ff8","130.91.127.46","Mozilla/5.0 (Windows NT 10.0; Win64; x64) AppleWebKit/537.36 (KHTML, like Gecko) Chrome/132.0.0.0 Safari/537.36","WebKit","Chrome","132.0.0.0","Windows","10.0","https://app.prolific.com/","en-US,en;q=0.9","5d13a30cc4806c00191ecd36","679147d2997803490f072fae","6791502e65484f3e439730c2","","null","<img    src='G_5.jpg' height='90'> <img    src='G_9.jpg' height='90'> <img id='swapped'  src='G_3.jpg' height='90'> <img id='swapped'    src='G_1.jpg' height='90'> <img     src='G_7.jpg' height='90'>","null","Learning example 1",""
"","","","","","html-button-response","154","255881","0.0-127.0-0.0-0.0","20","1","2025-01-22 20:08:36","6073afb29c8d06c5d8f22ae9f1371ff8","130.91.127.46","Mozilla/5.0 (Windows NT 10.0; Win64; x64) AppleWebKit/537.36 (KHTML, like Gecko) Chrome/132.0.0.0 Safari/537.36","WebKit","Chrome","132.0.0.0","Windows","10.0","https://app.prolific.com/","en-US,en;q=0.9","5d13a30cc4806c00191ecd36","679147d2997803490f072fae","6791502e65484f3e439730c2","","973","<img    src='G_5.jpg' height='90'> <img    src='G_9.jpg' height='90'> <img id='swapped'  src='G_3.jpg' height='90'> <img id='swapped'    src='G_1.jpg' height='90'> <img     src='G_7.jpg' height='90'>","3","Learning example 1",""
"","","","","","html-button-response","155","257126","0.0-127.1-0.1-0.1","20","1","2025-01-22 20:08:36","6073afb29c8d06c5d8f22ae9f1371ff8","130.91.127.46","Mozilla/5.0 (Windows NT 10.0; Win64; x64) AppleWebKit/537.36 (KHTML, like Gecko) Chrome/132.0.0.0 Safari/537.36","WebKit","Chrome","132.0.0.0","Windows","10.0","https://app.prolific.com/","en-US,en;q=0.9","5d13a30cc4806c00191ecd36","679147d2997803490f072fae","6791502e65484f3e439730c2","","1237","<img    src='G_5.jpg' height='90'> <img    src='G_9.jpg' height='90'> <img id='swapped'  src='G_3.jpg' height='90'> <img id='swapped'    src='G_1.jpg' height='90'> <img     src='G_7.jpg' height='90'>","2","Learning example 1",""
