"success","timeout","failed_images","failed_audio","failed_video","trial_type","trial_index","time_elapsed","internal_node_id","run_id","condition","recorded_at","source_code_version","ip","user_agent","device","browser","browser_version","platform","platform_version","referer","accept_language","PROLIFIC_PID","STUDY_ID","SESSION_ID","view_history","rt","stimulus","response","phase","question_order"
"true","false","[]","[]","[]","preload","0","3388","0.0-0.0","21","1","2025-01-22 20:10:09","6073afb29c8d06c5d8f22ae9f1371ff8","88.151.63.74","Mozilla/5.0 (Windows NT 10.0; Win64; x64) AppleWebKit/537.36 (KHTML, like Gecko) Chrome/130.0.0.0 Safari/537.36","WebKit","Chrome","130.0.0.0","Windows","10.0","https://app.prolific.com/","en-US,en;q=0.9","678ff417c9cc5df1d1206dcf","679147d2997803490f072fae","679150883d46c8570f3bd618","","","","","",""
"","","","","","instructions","1","12370","0.0-1.0","21","1","2025-01-22 20:10:09","6073afb29c8d06c5d8f22ae9f1371ff8","88.151.63.74","Mozilla/5.0 (Windows NT 10.0; Win64; x64) AppleWebKit/537.36 (KHTML, like Gecko) Chrome/130.0.0.0 Safari/537.36","WebKit","Chrome","130.0.0.0","Windows","10.0","https://app.prolific.com/","en-US,en;q=0.9","678ff417c9cc5df1d1206dcf","679147d2997803490f072fae","679150883d46c8570f3bd618","[{""page_index"":0,""viewing_time"":8977}]","8977","","","",""
"","","","","","html-keyboard-response","2","12884","0.0-2.0","21","1","2025-01-22 20:10:09","6073afb29c8d06c5d8f22ae9f1371ff8","88.151.63.74","Mozilla/5.0 (Windows NT 10.0; Win64; x64) AppleWebKit/537.36 (KHTML, like Gecko) Chrome/130.0.0.0 Safari/537.36","WebKit","Chrome","130.0.0.0","Windows","10.0","https://app.prolific.com/","en-US,en;q=0.9","678ff417c9cc5df1d1206dcf","679147d2997803490f072fae","679150883d46c8570f3bd618","","null","<p> + <p/>","null","",""
"","","","","","instructions","3","65164","0.0-3.0","21","1","2025-01-22 20:10:09","6073afb29c8d06c5d8f22ae9f1371ff8","88.151.63.74","Mozilla/5.0 (Windows NT 10.0; Win64; x64) AppleWebKit/537.36 (KHTML, like Gecko) Chrome/130.0.0.0 Safari/537.36","WebKit","Chrome","130.0.0.0","Windows","10.0","https://app.prolific.com/","en-US,en;q=0.9","678ff417c9cc5df1d1206dcf","679147d2997803490f072fae","679150883d46c8570f3bd618","[{""page_index"":0,""viewing_time"":7098},{""page_index"":1,""viewing_time"":15790},{""page_index"":2,""viewing_time"":10732},{""page_index"":3,""viewing_time"":5599},{""page_index"":4,""viewing_time"":13060}]","52279","","","",""
"","","","","","html-button-response","4","97834","0.0-4.0-0.0-0.0","21","1","2025-01-22 20:10:09","6073afb29c8d06c5d8f22ae9f1371ff8","88.151.63.74","Mozilla/5.0 (Windows NT 10.0; Win64; x64) AppleWebKit/537.36 (KHTML, like Gecko) Chrome/130.0.0.0 Safari/537.36","WebKit","Chrome","130.0.0.0","Windows","10.0","https://app.prolific.com/","en-US,en;q=0.9","678ff417c9cc5df1d1206dcf","679147d2997803490f072fae","679150883d46c8570f3bd618","","32664","","3","Intro Trial",""
"","","","","","html-button-response","5","98961","0.0-4.1-0.1-0.1","21","1","2025-01-22 20:10:09","6073afb29c8d06c5d8f22ae9f1371ff8","88.151.63.74","Mozilla/5.0 (Windows NT 10.0; Win64; x64) AppleWebKit/537.36 (KHTML, like Gecko) Chrome/130.0.0.0 Safari/537.36","WebKit","Chrome","130.0.0.0","Windows","10.0","https://app.prolific.com/","en-US,en;q=0.9","678ff417c9cc5df1d1206dcf","679147d2997803490f072fae","679150883d46c8570f3bd618","","1124","","0","Intro Trial",""
"","","","","","html-button-response","6","101641","0.0-4.2-0.2-0.2","21","1","2025-01-22 20:10:09","6073afb29c8d06c5d8f22ae9f1371ff8","88.151.63.74","Mozilla/5.0 (Windows NT 10.0; Win64; x64) AppleWebKit/537.36 (KHTML, like Gecko) Chrome/130.0.0.0 Safari/537.36","WebKit","Chrome","130.0.0.0","Windows","10.0","https://app.prolific.com/","en-US,en;q=0.9","678ff417c9cc5df1d1206dcf","679147d2997803490f072fae","679150883d46c8570f3bd618","","2677","","3","Intro Trial",""
"","","","","","html-button-response","7","102241","0.0-4.3-0.3-0.3","21","1","2025-01-22 20:10:09","6073afb29c8d06c5d8f22ae9f1371ff8","88.151.63.74","Mozilla/5.0 (Windows NT 10.0; Win64; x64) AppleWebKit/537.36 (KHTML, like Gecko) Chrome/130.0.0.0 Safari/537.36","WebKit","Chrome","130.0.0.0","Windows","10.0","https://app.prolific.com/","en-US,en;q=0.9","678ff417c9cc5df1d1206dcf","679147d2997803490f072fae","679150883d46c8570f3bd618","","597","","2","Intro Trial",""
"","","","","","html-button-response","8","103369","0.0-4.4-0.4-0.4","21","1","2025-01-22 20:10:09","6073afb29c8d06c5d8f22ae9f1371ff8","88.151.63.74","Mozilla/5.0 (Windows NT 10.0; Win64; x64) AppleWebKit/537.36 (KHTML, like Gecko) Chrome/130.0.0.0 Safari/537.36","WebKit","Chrome","130.0.0.0","Windows","10.0","https://app.prolific.com/","en-US,en;q=0.9","678ff417c9cc5df1d1206dcf","679147d2997803490f072fae","679150883d46c8570f3bd618","","1125","","2","Intro Trial",""
"","","","","","html-button-response","9","103929","0.0-4.5-0.5-0.5","21","1","2025-01-22 20:10:09","6073afb29c8d06c5d8f22ae9f1371ff8","88.151.63.74","Mozilla/5.0 (Windows NT 10.0; Win64; x64) AppleWebKit/537.36 (KHTML, like Gecko) Chrome/130.0.0.0 Safari/537.36","WebKit","Chrome","130.0.0.0","Windows","10.0","https://app.prolific.com/","en-US,en;q=0.9","678ff417c9cc5df1d1206dcf","679147d2997803490f072fae","679150883d46c8570f3bd618","","557","","3","Intro Trial",""
"","","","","","html-button-response","10","104609","0.0-4.6-0.6-0.6","21","1","2025-01-22 20:10:09","6073afb29c8d06c5d8f22ae9f1371ff8","88.151.63.74","Mozilla/5.0 (Windows NT 10.0; Win64; x64) AppleWebKit/537.36 (KHTML, like Gecko) Chrome/130.0.0.0 Safari/537.36","WebKit","Chrome","130.0.0.0","Windows","10.0","https://app.prolific.com/","en-US,en;q=0.9","678ff417c9cc5df1d1206dcf","679147d2997803490f072fae","679150883d46c8570f3bd618","","677","","3","Intro Trial",""
"","","","","","html-button-response","11","112802","0.0-4.7-0.7-0.7","21","1","2025-01-22 20:10:09","6073afb29c8d06c5d8f22ae9f1371ff8","88.151.63.74","Mozilla/5.0 (Windows NT 10.0; Win64; x64) AppleWebKit/537.36 (KHTML, like Gecko) Chrome/130.0.0.0 Safari/537.36","WebKit","Chrome","130.0.0.0","Windows","10.0","https://app.prolific.com/","en-US,en;q=0.9","678ff417c9cc5df1d1206dcf","679147d2997803490f072fae","679150883d46c8570f3bd618","","8189","","3","Intro Trial",""
"","","","","","html-button-response","12","113714","0.0-4.8-0.8-0.8","21","1","2025-01-22 20:10:09","6073afb29c8d06c5d8f22ae9f1371ff8","88.151.63.74","Mozilla/5.0 (Windows NT 10.0; Win64; x64) AppleWebKit/537.36 (KHTML, like Gecko) Chrome/130.0.0.0 Safari/537.36","WebKit","Chrome","130.0.0.0","Windows","10.0","https://app.prolific.com/","en-US,en;q=0.9","678ff417c9cc5df1d1206dcf","679147d2997803490f072fae","679150883d46c8570f3bd618","","909","","3","Intro Trial",""
"","","","","","html-button-response","13","114554","0.0-4.9-0.9-0.9","21","1","2025-01-22 20:10:09","6073afb29c8d06c5d8f22ae9f1371ff8","88.151.63.74","Mozilla/5.0 (Windows NT 10.0; Win64; x64) AppleWebKit/537.36 (KHTML, like Gecko) Chrome/130.0.0.0 Safari/537.36","WebKit","Chrome","130.0.0.0","Windows","10.0","https://app.prolific.com/","en-US,en;q=0.9","678ff417c9cc5df1d1206dcf","679147d2997803490f072fae","679150883d46c8570f3bd618","","837","","1","Intro Trial",""
"","","","","","html-button-response","14","116066","0.0-4.10-0.10-0.10","21","1","2025-01-22 20:10:09","6073afb29c8d06c5d8f22ae9f1371ff8","88.151.63.74","Mozilla/5.0 (Windows NT 10.0; Win64; x64) AppleWebKit/537.36 (KHTML, like Gecko) Chrome/130.0.0.0 Safari/537.36","WebKit","Chrome","130.0.0.0","Windows","10.0","https://app.prolific.com/","en-US,en;q=0.9","678ff417c9cc5df1d1206dcf","679147d2997803490f072fae","679150883d46c8570f3bd618","","1509","","5","Intro Trial",""
"","","","","","html-keyboard-response","15","130563","0.0-5.0","21","1","2025-01-22 20:10:09","6073afb29c8d06c5d8f22ae9f1371ff8","88.151.63.74","Mozilla/5.0 (Windows NT 10.0; Win64; x64) AppleWebKit/537.36 (KHTML, like Gecko) Chrome/130.0.0.0 Safari/537.36","WebKit","Chrome","130.0.0.0","Windows","10.0","https://app.prolific.com/","en-US,en;q=0.9","678ff417c9cc5df1d1206dcf","679147d2997803490f072fae","679150883d46c8570f3bd618","","14494","[""You sorted incorrectly by using the balance 4 times. <br><br> <img src='G_1.jpg' height='90'><img src='G_2.jpg' height='90'><img src='G_3.jpg' height='90'><img src='G_4.jpg' height='90'><img src='G_5.jpg' height='90'><br><br> Your final order is 4,2,3,5,1<br><br><br>Omgne Sort in this game will allow you to sort correctly by using the balance 8 times. Press Enter to learn it!""]","enter","",""
"","","","","","html-keyboard-response","16","137837","0.0-6.0","21","1","2025-01-22 20:10:09","6073afb29c8d06c5d8f22ae9f1371ff8","88.151.63.74","Mozilla/5.0 (Windows NT 10.0; Win64; x64) AppleWebKit/537.36 (KHTML, like Gecko) Chrome/130.0.0.0 Safari/537.36","WebKit","Chrome","130.0.0.0","Windows","10.0","https://app.prolific.com/","en-US,en;q=0.9","678ff417c9cc5df1d1206dcf","679147d2997803490f072fae","679150883d46c8570f3bd618","","7271","<p>Welcome to the learning phase! <br><br> You will learn by four examples. The following learning trials will not be used to calculate your performance. <br><br> Press Enter to continue.<p/>","enter","",""
"","","","","","html-keyboard-response","17","145157","0.0-7.0","21","1","2025-01-22 20:10:09","6073afb29c8d06c5d8f22ae9f1371ff8","88.151.63.74","Mozilla/5.0 (Windows NT 10.0; Win64; x64) AppleWebKit/537.36 (KHTML, like Gecko) Chrome/130.0.0.0 Safari/537.36","WebKit","Chrome","130.0.0.0","Windows","10.0","https://app.prolific.com/","en-US,en;q=0.9","678ff417c9cc5df1d1206dcf","679147d2997803490f072fae","679150883d46c8570f3bd618","","7318","[""Example 1<br><br>You will watch Omnge Sort in action. Try to identify any patterns in the comparisons made by this method. <br><br>Press Enter to continue.""]","enter","",""
"","","","","","html-keyboard-response","18","145674","0.0-8.0","21","1","2025-01-22 20:10:09","6073afb29c8d06c5d8f22ae9f1371ff8","88.151.63.74","Mozilla/5.0 (Windows NT 10.0; Win64; x64) AppleWebKit/537.36 (KHTML, like Gecko) Chrome/130.0.0.0 Safari/537.36","WebKit","Chrome","130.0.0.0","Windows","10.0","https://app.prolific.com/","en-US,en;q=0.9","678ff417c9cc5df1d1206dcf","679147d2997803490f072fae","679150883d46c8570f3bd618","","null","<img id='selected' src='G_5.jpg' height='90'> <img src='G_3.jpg' height='90'> <img src='G_9.jpg' height='90'> <img src='G_1.jpg' height='90'> <img src='G_7.jpg' height='90'>","null","Animation0",""
"","","","","","html-keyboard-response","19","146189","0.0-9.0","21","1","2025-01-22 20:10:09","6073afb29c8d06c5d8f22ae9f1371ff8","88.151.63.74","Mozilla/5.0 (Windows NT 10.0; Win64; x64) AppleWebKit/537.36 (KHTML, like Gecko) Chrome/130.0.0.0 Safari/537.36","WebKit","Chrome","130.0.0.0","Windows","10.0","https://app.prolific.com/","en-US,en;q=0.9","678ff417c9cc5df1d1206dcf","679147d2997803490f072fae","679150883d46c8570f3bd618","","null","<img id='selected' src='G_5.jpg' height='90'> <img id='selected' src='G_3.jpg' height='90'> <img src='G_9.jpg' height='90'> <img src='G_1.jpg' height='90'> <img src='G_7.jpg' height='90'>","null","Animation0",""
"","","","","","html-keyboard-response","20","146698","0.0-10.0","21","1","2025-01-22 20:10:09","6073afb29c8d06c5d8f22ae9f1371ff8","88.151.63.74","Mozilla/5.0 (Windows NT 10.0; Win64; x64) AppleWebKit/537.36 (KHTML, like Gecko) Chrome/130.0.0.0 Safari/537.36","WebKit","Chrome","130.0.0.0","Windows","10.0","https://app.prolific.com/","en-US,en;q=0.9","678ff417c9cc5df1d1206dcf","679147d2997803490f072fae","679150883d46c8570f3bd618","","null","<img id='swapped' src='G_3.jpg' height='90'> <img id='swapped' src='G_5.jpg' height='90'> <img src='G_9.jpg' height='90'> <img src='G_1.jpg' height='90'> <img src='G_7.jpg' height='90'>","null","Animation0",""
"","","","","","html-keyboard-response","21","147009","0.0-11.0","21","1","2025-01-22 20:10:09","6073afb29c8d06c5d8f22ae9f1371ff8","88.151.63.74","Mozilla/5.0 (Windows NT 10.0; Win64; x64) AppleWebKit/537.36 (KHTML, like Gecko) Chrome/130.0.0.0 Safari/537.36","WebKit","Chrome","130.0.0.0","Windows","10.0","https://app.prolific.com/","en-US,en;q=0.9","678ff417c9cc5df1d1206dcf","679147d2997803490f072fae","679150883d46c8570f3bd618","","null","<img  src='G_3.jpg' height='90'> <img  src='G_5.jpg' height='90'> <img src='G_9.jpg' height='90'> <img src='G_1.jpg' height='90'> <img src='G_7.jpg' height='90'>","null","Animation0",""
"","","","","","html-keyboard-response","22","147521","0.0-12.0","21","1","2025-01-22 20:10:09","6073afb29c8d06c5d8f22ae9f1371ff8","88.151.63.74","Mozilla/5.0 (Windows NT 10.0; Win64; x64) AppleWebKit/537.36 (KHTML, like Gecko) Chrome/130.0.0.0 Safari/537.36","WebKit","Chrome","130.0.0.0","Windows","10.0","https://app.prolific.com/","en-US,en;q=0.9","678ff417c9cc5df1d1206dcf","679147d2997803490f072fae","679150883d46c8570f3bd618","","null","<img  src='G_3.jpg' height='90'> <img id='selected'  src='G_5.jpg' height='90'> <img src='G_9.jpg' height='90'> <img src='G_1.jpg' height='90'> <img src='G_7.jpg' height='90'>","null","Animation0",""
"","","","","","html-keyboard-response","23","148034","0.0-13.0","21","1","2025-01-22 20:10:09","6073afb29c8d06c5d8f22ae9f1371ff8","88.151.63.74","Mozilla/5.0 (Windows NT 10.0; Win64; x64) AppleWebKit/537.36 (KHTML, like Gecko) Chrome/130.0.0.0 Safari/537.36","WebKit","Chrome","130.0.0.0","Windows","10.0","https://app.prolific.com/","en-US,en;q=0.9","678ff417c9cc5df1d1206dcf","679147d2997803490f072fae","679150883d46c8570f3bd618","","null","<img  src='G_3.jpg' height='90'> <img id='selected'  src='G_5.jpg' height='90'> <img id='selected' src='G_9.jpg' height='90'> <img src='G_1.jpg' height='90'> <img src='G_7.jpg' height='90'>","null","Animation0",""
"","","","","","html-keyboard-response","24","148547","0.0-14.0","21","1","2025-01-22 20:10:09","6073afb29c8d06c5d8f22ae9f1371ff8","88.151.63.74","Mozilla/5.0 (Windows NT 10.0; Win64; x64) AppleWebKit/537.36 (KHTML, like Gecko) Chrome/130.0.0.0 Safari/537.36","WebKit","Chrome","130.0.0.0","Windows","10.0","https://app.prolific.com/","en-US,en;q=0.9","678ff417c9cc5df1d1206dcf","679147d2997803490f072fae","679150883d46c8570f3bd618","","null","<img  src='G_3.jpg' height='90'> <img id='selected'  src='G_5.jpg' height='90'> <img id='selected' src='G_9.jpg' height='90'> <img src='G_1.jpg' height='90'> <img src='G_7.jpg' height='90'>","null","Animation0",""
"","","","","","html-keyboard-response","25","148861","0.0-15.0","21","1","2025-01-22 20:10:09","6073afb29c8d06c5d8f22ae9f1371ff8","88.151.63.74","Mozilla/5.0 (Windows NT 10.0; Win64; x64) AppleWebKit/537.36 (KHTML, like Gecko) Chrome/130.0.0.0 Safari/537.36","WebKit","Chrome","130.0.0.0","Windows","10.0","https://app.prolific.com/","en-US,en;q=0.9","678ff417c9cc5df1d1206dcf","679147d2997803490f072fae","679150883d46c8570f3bd618","","null","<img  src='G_3.jpg' height='90'> <img   src='G_5.jpg' height='90'> <img  src='G_9.jpg' height='90'> <img src='G_1.jpg' height='90'> <img src='G_7.jpg' height='90'>","null","Animation0",""
"","","","","","html-keyboard-response","26","149375","0.0-16.0","21","1","2025-01-22 20:10:09","6073afb29c8d06c5d8f22ae9f1371ff8","88.151.63.74","Mozilla/5.0 (Windows NT 10.0; Win64; x64) AppleWebKit/537.36 (KHTML, like Gecko) Chrome/130.0.0.0 Safari/537.36","WebKit","Chrome","130.0.0.0","Windows","10.0","https://app.prolific.com/","en-US,en;q=0.9","678ff417c9cc5df1d1206dcf","679147d2997803490f072fae","679150883d46c8570f3bd618","","null","<img  src='G_3.jpg' height='90'> <img   src='G_5.jpg' height='90'> <img id='selected'  src='G_9.jpg' height='90'> <img src='G_1.jpg' height='90'> <img src='G_7.jpg' height='90'>","null","Animation0",""
"","","","","","html-keyboard-response","27","149888","0.0-17.0","21","1","2025-01-22 20:10:09","6073afb29c8d06c5d8f22ae9f1371ff8","88.151.63.74","Mozilla/5.0 (Windows NT 10.0; Win64; x64) AppleWebKit/537.36 (KHTML, like Gecko) Chrome/130.0.0.0 Safari/537.36","WebKit","Chrome","130.0.0.0","Windows","10.0","https://app.prolific.com/","en-US,en;q=0.9","678ff417c9cc5df1d1206dcf","679147d2997803490f072fae","679150883d46c8570f3bd618","","null","<img  src='G_3.jpg' height='90'> <img   src='G_5.jpg' height='90'> <img id='selected'  src='G_9.jpg' height='90'> <img id='selected' src='G_1.jpg' height='90'> <img src='G_7.jpg' height='90'>","null","Animation0",""
"","","","","","html-keyboard-response","28","150399","0.0-18.0","21","1","2025-01-22 20:10:09","6073afb29c8d06c5d8f22ae9f1371ff8","88.151.63.74","Mozilla/5.0 (Windows NT 10.0; Win64; x64) AppleWebKit/537.36 (KHTML, like Gecko) Chrome/130.0.0.0 Safari/537.36","WebKit","Chrome","130.0.0.0","Windows","10.0","https://app.prolific.com/","en-US,en;q=0.9","678ff417c9cc5df1d1206dcf","679147d2997803490f072fae","679150883d46c8570f3bd618","","null","<img  src='G_3.jpg' height='90'> <img   src='G_5.jpg' height='90'> <img id='selected'  src='G_9.jpg' height='90'> <img id='selected' src='G_1.jpg' height='90'> <img src='G_7.jpg' height='90'>","null","Animation0",""
"","","","","","html-keyboard-response","29","150709","0.0-19.0","21","1","2025-01-22 20:10:09","6073afb29c8d06c5d8f22ae9f1371ff8","88.151.63.74","Mozilla/5.0 (Windows NT 10.0; Win64; x64) AppleWebKit/537.36 (KHTML, like Gecko) Chrome/130.0.0.0 Safari/537.36","WebKit","Chrome","130.0.0.0","Windows","10.0","https://app.prolific.com/","en-US,en;q=0.9","678ff417c9cc5df1d1206dcf","679147d2997803490f072fae","679150883d46c8570f3bd618","","null","<img  src='G_3.jpg' height='90'> <img   src='G_5.jpg' height='90'> <img   src='G_9.jpg' height='90'> <img  src='G_1.jpg' height='90'> <img src='G_7.jpg' height='90'>","null","Animation0",""
"","","","","","html-keyboard-response","30","151221","0.0-20.0","21","1","2025-01-22 20:10:09","6073afb29c8d06c5d8f22ae9f1371ff8","88.151.63.74","Mozilla/5.0 (Windows NT 10.0; Win64; x64) AppleWebKit/537.36 (KHTML, like Gecko) Chrome/130.0.0.0 Safari/537.36","WebKit","Chrome","130.0.0.0","Windows","10.0","https://app.prolific.com/","en-US,en;q=0.9","678ff417c9cc5df1d1206dcf","679147d2997803490f072fae","679150883d46c8570f3bd618","","null","<img  src='G_3.jpg' height='90'> <img   src='G_5.jpg' height='90'> <img   src='G_9.jpg' height='90'> <img id='selected'  src='G_1.jpg' height='90'> <img src='G_7.jpg' height='90'>","null","Animation0",""
"","","","","","html-keyboard-response","31","151734","0.0-21.0","21","1","2025-01-22 20:10:09","6073afb29c8d06c5d8f22ae9f1371ff8","88.151.63.74","Mozilla/5.0 (Windows NT 10.0; Win64; x64) AppleWebKit/537.36 (KHTML, like Gecko) Chrome/130.0.0.0 Safari/537.36","WebKit","Chrome","130.0.0.0","Windows","10.0","https://app.prolific.com/","en-US,en;q=0.9","678ff417c9cc5df1d1206dcf","679147d2997803490f072fae","679150883d46c8570f3bd618","","null","<img  src='G_3.jpg' height='90'> <img   src='G_5.jpg' height='90'> <img   src='G_9.jpg' height='90'> <img id='selected'  src='G_1.jpg' height='90'> <img id='selected' src='G_7.jpg' height='90'>","null","Animation0",""
"","","","","","html-keyboard-response","32","152245","0.0-22.0","21","1","2025-01-22 20:10:09","6073afb29c8d06c5d8f22ae9f1371ff8","88.151.63.74","Mozilla/5.0 (Windows NT 10.0; Win64; x64) AppleWebKit/537.36 (KHTML, like Gecko) Chrome/130.0.0.0 Safari/537.36","WebKit","Chrome","130.0.0.0","Windows","10.0","https://app.prolific.com/","en-US,en;q=0.9","678ff417c9cc5df1d1206dcf","679147d2997803490f072fae","679150883d46c8570f3bd618","","null","<img  src='G_3.jpg' height='90'> <img   src='G_5.jpg' height='90'> <img   src='G_9.jpg' height='90'> <img id='selected'  src='G_1.jpg' height='90'> <img id='selected' src='G_7.jpg' height='90'>","null","Animation0",""
"","","","","","html-keyboard-response","33","152557","0.0-23.0","21","1","2025-01-22 20:10:09","6073afb29c8d06c5d8f22ae9f1371ff8","88.151.63.74","Mozilla/5.0 (Windows NT 10.0; Win64; x64) AppleWebKit/537.36 (KHTML, like Gecko) Chrome/130.0.0.0 Safari/537.36","WebKit","Chrome","130.0.0.0","Windows","10.0","https://app.prolific.com/","en-US,en;q=0.9","678ff417c9cc5df1d1206dcf","679147d2997803490f072fae","679150883d46c8570f3bd618","","null","<img  src='G_3.jpg' height='90'> <img   src='G_5.jpg' height='90'> <img   src='G_9.jpg' height='90'> <img   src='G_1.jpg' height='90'> <img  src='G_7.jpg' height='90'>","null","Animation0",""
"","","","","","html-keyboard-response","34","159155","0.0-24.0","21","1","2025-01-22 20:10:09","6073afb29c8d06c5d8f22ae9f1371ff8","88.151.63.74","Mozilla/5.0 (Windows NT 10.0; Win64; x64) AppleWebKit/537.36 (KHTML, like Gecko) Chrome/130.0.0.0 Safari/537.36","WebKit","Chrome","130.0.0.0","Windows","10.0","https://app.prolific.com/","en-US,en;q=0.9","678ff417c9cc5df1d1206dcf","679147d2997803490f072fae","679150883d46c8570f3bd618","","6596","[""Did you notice any patterns? <br><br>Press Enter to watch that example again and follow the steps of Omgne Sort.""]","enter","",""
"","","","","","html-button-response","35","159574","0.0-25.0","21","1","2025-01-22 20:10:09","6073afb29c8d06c5d8f22ae9f1371ff8","88.151.63.74","Mozilla/5.0 (Windows NT 10.0; Win64; x64) AppleWebKit/537.36 (KHTML, like Gecko) Chrome/130.0.0.0 Safari/537.36","WebKit","Chrome","130.0.0.0","Windows","10.0","https://app.prolific.com/","en-US,en;q=0.9","678ff417c9cc5df1d1206dcf","679147d2997803490f072fae","679150883d46c8570f3bd618","","null","<img id='selected' src='G_5.jpg' height='90'> <img src='G_3.jpg' height='90'> <img src='G_9.jpg' height='90'> <img src='G_1.jpg' height='90'> <img src='G_7.jpg' height='90'>","null","Learning example 0",""
"","","","","","html-button-response","36","159884","0.0-26.0","21","1","2025-01-22 20:10:09","6073afb29c8d06c5d8f22ae9f1371ff8","88.151.63.74","Mozilla/5.0 (Windows NT 10.0; Win64; x64) AppleWebKit/537.36 (KHTML, like Gecko) Chrome/130.0.0.0 Safari/537.36","WebKit","Chrome","130.0.0.0","Windows","10.0","https://app.prolific.com/","en-US,en;q=0.9","678ff417c9cc5df1d1206dcf","679147d2997803490f072fae","679150883d46c8570f3bd618","","null","<img id='selected' src='G_5.jpg' height='90'> <img id='selected' src='G_3.jpg' height='90'> <img src='G_9.jpg' height='90'> <img src='G_1.jpg' height='90'> <img src='G_7.jpg' height='90'>","null","Learning example 0",""
"","","","","","html-button-response","37","160193","0.0-27.0","21","1","2025-01-22 20:10:09","6073afb29c8d06c5d8f22ae9f1371ff8","88.151.63.74","Mozilla/5.0 (Windows NT 10.0; Win64; x64) AppleWebKit/537.36 (KHTML, like Gecko) Chrome/130.0.0.0 Safari/537.36","WebKit","Chrome","130.0.0.0","Windows","10.0","https://app.prolific.com/","en-US,en;q=0.9","678ff417c9cc5df1d1206dcf","679147d2997803490f072fae","679150883d46c8570f3bd618","","null","<img id='swapped' src='G_3.jpg' height='90'> <img id='swapped' src='G_5.jpg' height='90'> <img src='G_9.jpg' height='90'> <img src='G_1.jpg' height='90'> <img src='G_7.jpg' height='90'>","null","Learning example 0",""
"","","","","","html-button-response","38","206866","0.0-28.0-0.0-0.0","21","1","2025-01-22 20:10:09","6073afb29c8d06c5d8f22ae9f1371ff8","88.151.63.74","Mozilla/5.0 (Windows NT 10.0; Win64; x64) AppleWebKit/537.36 (KHTML, like Gecko) Chrome/130.0.0.0 Safari/537.36","WebKit","Chrome","130.0.0.0","Windows","10.0","https://app.prolific.com/","en-US,en;q=0.9","678ff417c9cc5df1d1206dcf","679147d2997803490f072fae","679150883d46c8570f3bd618","","46668","<img id='swapped' src='G_3.jpg' height='90'> <img id='swapped' src='G_5.jpg' height='90'> <img src='G_9.jpg' height='90'> <img src='G_1.jpg' height='90'> <img src='G_7.jpg' height='90'>","0","Learning example 0",""
"","","","","","html-button-response","39","207370","0.0-28.1-0.1-0.1","21","1","2025-01-22 20:10:09","6073afb29c8d06c5d8f22ae9f1371ff8","88.151.63.74","Mozilla/5.0 (Windows NT 10.0; Win64; x64) AppleWebKit/537.36 (KHTML, like Gecko) Chrome/130.0.0.0 Safari/537.36","WebKit","Chrome","130.0.0.0","Windows","10.0","https://app.prolific.com/","en-US,en;q=0.9","678ff417c9cc5df1d1206dcf","679147d2997803490f072fae","679150883d46c8570f3bd618","","499","<img id='swapped' src='G_3.jpg' height='90'> <img id='swapped' src='G_5.jpg' height='90'> <img src='G_9.jpg' height='90'> <img src='G_1.jpg' height='90'> <img src='G_7.jpg' height='90'>","1","Learning example 0",""
"","","","","","html-button-response","40","207589","0.0-29.0","21","1","2025-01-22 20:10:09","6073afb29c8d06c5d8f22ae9f1371ff8","88.151.63.74","Mozilla/5.0 (Windows NT 10.0; Win64; x64) AppleWebKit/537.36 (KHTML, like Gecko) Chrome/130.0.0.0 Safari/537.36","WebKit","Chrome","130.0.0.0","Windows","10.0","https://app.prolific.com/","en-US,en;q=0.9","678ff417c9cc5df1d1206dcf","679147d2997803490f072fae","679150883d46c8570f3bd618","","null","<img  src='G_3.jpg' height='90'> <img  src='G_5.jpg' height='90'> <img src='G_9.jpg' height='90'> <img src='G_1.jpg' height='90'> <img src='G_7.jpg' height='90'>","null","Learning example 0",""
"","","","","","html-button-response","41","207993","0.0-30.0","21","1","2025-01-22 20:10:09","6073afb29c8d06c5d8f22ae9f1371ff8","88.151.63.74","Mozilla/5.0 (Windows NT 10.0; Win64; x64) AppleWebKit/537.36 (KHTML, like Gecko) Chrome/130.0.0.0 Safari/537.36","WebKit","Chrome","130.0.0.0","Windows","10.0","https://app.prolific.com/","en-US,en;q=0.9","678ff417c9cc5df1d1206dcf","679147d2997803490f072fae","679150883d46c8570f3bd618","","null","<img  src='G_3.jpg' height='90'> <img id='selected'  src='G_5.jpg' height='90'> <img src='G_9.jpg' height='90'> <img src='G_1.jpg' height='90'> <img src='G_7.jpg' height='90'>","null","Learning example 0",""
"","","","","","html-button-response","42","208301","0.0-31.0","21","1","2025-01-22 20:10:09","6073afb29c8d06c5d8f22ae9f1371ff8","88.151.63.74","Mozilla/5.0 (Windows NT 10.0; Win64; x64) AppleWebKit/537.36 (KHTML, like Gecko) Chrome/130.0.0.0 Safari/537.36","WebKit","Chrome","130.0.0.0","Windows","10.0","https://app.prolific.com/","en-US,en;q=0.9","678ff417c9cc5df1d1206dcf","679147d2997803490f072fae","679150883d46c8570f3bd618","","null","<img  src='G_3.jpg' height='90'> <img id='selected'  src='G_5.jpg' height='90'> <img id='selected' src='G_9.jpg' height='90'> <img src='G_1.jpg' height='90'> <img src='G_7.jpg' height='90'>","null","Learning example 0",""
"","","","","","html-button-response","43","208611","0.0-32.0","21","1","2025-01-22 20:10:09","6073afb29c8d06c5d8f22ae9f1371ff8","88.151.63.74","Mozilla/5.0 (Windows NT 10.0; Win64; x64) AppleWebKit/537.36 (KHTML, like Gecko) Chrome/130.0.0.0 Safari/537.36","WebKit","Chrome","130.0.0.0","Windows","10.0","https://app.prolific.com/","en-US,en;q=0.9","678ff417c9cc5df1d1206dcf","679147d2997803490f072fae","679150883d46c8570f3bd618","","null","<img  src='G_3.jpg' height='90'> <img id='selected'  src='G_5.jpg' height='90'> <img id='selected' src='G_9.jpg' height='90'> <img src='G_1.jpg' height='90'> <img src='G_7.jpg' height='90'>","null","Learning example 0",""
"","","","","","html-button-response","44","211378","0.0-33.0-0.0-0.0","21","1","2025-01-22 20:10:09","6073afb29c8d06c5d8f22ae9f1371ff8","88.151.63.74","Mozilla/5.0 (Windows NT 10.0; Win64; x64) AppleWebKit/537.36 (KHTML, like Gecko) Chrome/130.0.0.0 Safari/537.36","WebKit","Chrome","130.0.0.0","Windows","10.0","https://app.prolific.com/","en-US,en;q=0.9","678ff417c9cc5df1d1206dcf","679147d2997803490f072fae","679150883d46c8570f3bd618","","2764","<img  src='G_3.jpg' height='90'> <img id='selected'  src='G_5.jpg' height='90'> <img id='selected' src='G_9.jpg' height='90'> <img src='G_1.jpg' height='90'> <img src='G_7.jpg' height='90'>","1","Learning example 0",""
"","","","","","html-button-response","45","212331","0.0-33.1-0.1-0.1","21","1","2025-01-22 20:10:09","6073afb29c8d06c5d8f22ae9f1371ff8","88.151.63.74","Mozilla/5.0 (Windows NT 10.0; Win64; x64) AppleWebKit/537.36 (KHTML, like Gecko) Chrome/130.0.0.0 Safari/537.36","WebKit","Chrome","130.0.0.0","Windows","10.0","https://app.prolific.com/","en-US,en;q=0.9","678ff417c9cc5df1d1206dcf","679147d2997803490f072fae","679150883d46c8570f3bd618","","947","<img  src='G_3.jpg' height='90'> <img id='selected'  src='G_5.jpg' height='90'> <img id='selected' src='G_9.jpg' height='90'> <img src='G_1.jpg' height='90'> <img src='G_7.jpg' height='90'>","2","Learning example 0",""
"","","","","","html-button-response","46","212537","0.0-34.0","21","1","2025-01-22 20:10:09","6073afb29c8d06c5d8f22ae9f1371ff8","88.151.63.74","Mozilla/5.0 (Windows NT 10.0; Win64; x64) AppleWebKit/537.36 (KHTML, like Gecko) Chrome/130.0.0.0 Safari/537.36","WebKit","Chrome","130.0.0.0","Windows","10.0","https://app.prolific.com/","en-US,en;q=0.9","678ff417c9cc5df1d1206dcf","679147d2997803490f072fae","679150883d46c8570f3bd618","","null","<img  src='G_3.jpg' height='90'> <img   src='G_5.jpg' height='90'> <img  src='G_9.jpg' height='90'> <img src='G_1.jpg' height='90'> <img src='G_7.jpg' height='90'>","null","Learning example 0",""
"","","","","","html-button-response","47","212941","0.0-35.0","21","1","2025-01-22 20:10:09","6073afb29c8d06c5d8f22ae9f1371ff8","88.151.63.74","Mozilla/5.0 (Windows NT 10.0; Win64; x64) AppleWebKit/537.36 (KHTML, like Gecko) Chrome/130.0.0.0 Safari/537.36","WebKit","Chrome","130.0.0.0","Windows","10.0","https://app.prolific.com/","en-US,en;q=0.9","678ff417c9cc5df1d1206dcf","679147d2997803490f072fae","679150883d46c8570f3bd618","","null","<img  src='G_3.jpg' height='90'> <img   src='G_5.jpg' height='90'> <img id='selected'  src='G_9.jpg' height='90'> <img src='G_1.jpg' height='90'> <img src='G_7.jpg' height='90'>","null","Learning example 0",""
"","","","","","html-button-response","48","213250","0.0-36.0","21","1","2025-01-22 20:10:09","6073afb29c8d06c5d8f22ae9f1371ff8","88.151.63.74","Mozilla/5.0 (Windows NT 10.0; Win64; x64) AppleWebKit/537.36 (KHTML, like Gecko) Chrome/130.0.0.0 Safari/537.36","WebKit","Chrome","130.0.0.0","Windows","10.0","https://app.prolific.com/","en-US,en;q=0.9","678ff417c9cc5df1d1206dcf","679147d2997803490f072fae","679150883d46c8570f3bd618","","null","<img  src='G_3.jpg' height='90'> <img   src='G_5.jpg' height='90'> <img id='selected'  src='G_9.jpg' height='90'> <img id='selected' src='G_1.jpg' height='90'> <img src='G_7.jpg' height='90'>","null","Learning example 0",""
"","","","","","html-button-response","49","213563","0.0-37.0","21","1","2025-01-22 20:10:09","6073afb29c8d06c5d8f22ae9f1371ff8","88.151.63.74","Mozilla/5.0 (Windows NT 10.0; Win64; x64) AppleWebKit/537.36 (KHTML, like Gecko) Chrome/130.0.0.0 Safari/537.36","WebKit","Chrome","130.0.0.0","Windows","10.0","https://app.prolific.com/","en-US,en;q=0.9","678ff417c9cc5df1d1206dcf","679147d2997803490f072fae","679150883d46c8570f3bd618","","null","<img  src='G_3.jpg' height='90'> <img   src='G_5.jpg' height='90'> <img id='selected'  src='G_9.jpg' height='90'> <img id='selected' src='G_1.jpg' height='90'> <img src='G_7.jpg' height='90'>","null","Learning example 0",""
"","","","","","html-button-response","50","214922","0.0-38.0-0.0-0.0","21","1","2025-01-22 20:10:09","6073afb29c8d06c5d8f22ae9f1371ff8","88.151.63.74","Mozilla/5.0 (Windows NT 10.0; Win64; x64) AppleWebKit/537.36 (KHTML, like Gecko) Chrome/130.0.0.0 Safari/537.36","WebKit","Chrome","130.0.0.0","Windows","10.0","https://app.prolific.com/","en-US,en;q=0.9","678ff417c9cc5df1d1206dcf","679147d2997803490f072fae","679150883d46c8570f3bd618","","1355","<img  src='G_3.jpg' height='90'> <img   src='G_5.jpg' height='90'> <img id='selected'  src='G_9.jpg' height='90'> <img id='selected' src='G_1.jpg' height='90'> <img src='G_7.jpg' height='90'>","2","Learning example 0",""
"","","","","","html-button-response","51","215379","0.0-38.1-0.1-0.1","21","1","2025-01-22 20:10:09","6073afb29c8d06c5d8f22ae9f1371ff8","88.151.63.74","Mozilla/5.0 (Windows NT 10.0; Win64; x64) AppleWebKit/537.36 (KHTML, like Gecko) Chrome/130.0.0.0 Safari/537.36","WebKit","Chrome","130.0.0.0","Windows","10.0","https://app.prolific.com/","en-US,en;q=0.9","678ff417c9cc5df1d1206dcf","679147d2997803490f072fae","679150883d46c8570f3bd618","","453","<img  src='G_3.jpg' height='90'> <img   src='G_5.jpg' height='90'> <img id='selected'  src='G_9.jpg' height='90'> <img id='selected' src='G_1.jpg' height='90'> <img src='G_7.jpg' height='90'>","3","Learning example 0",""
"","","","","","html-button-response","52","215597","0.0-39.0","21","1","2025-01-22 20:10:09","6073afb29c8d06c5d8f22ae9f1371ff8","88.151.63.74","Mozilla/5.0 (Windows NT 10.0; Win64; x64) AppleWebKit/537.36 (KHTML, like Gecko) Chrome/130.0.0.0 Safari/537.36","WebKit","Chrome","130.0.0.0","Windows","10.0","https://app.prolific.com/","en-US,en;q=0.9","678ff417c9cc5df1d1206dcf","679147d2997803490f072fae","679150883d46c8570f3bd618","","null","<img  src='G_3.jpg' height='90'> <img   src='G_5.jpg' height='90'> <img   src='G_9.jpg' height='90'> <img  src='G_1.jpg' height='90'> <img src='G_7.jpg' height='90'>","null","Learning example 0",""
"","","","","","html-button-response","53","216002","0.0-40.0","21","1","2025-01-22 20:10:09","6073afb29c8d06c5d8f22ae9f1371ff8","88.151.63.74","Mozilla/5.0 (Windows NT 10.0; Win64; x64) AppleWebKit/537.36 (KHTML, like Gecko) Chrome/130.0.0.0 Safari/537.36","WebKit","Chrome","130.0.0.0","Windows","10.0","https://app.prolific.com/","en-US,en;q=0.9","678ff417c9cc5df1d1206dcf","679147d2997803490f072fae","679150883d46c8570f3bd618","","null","<img  src='G_3.jpg' height='90'> <img   src='G_5.jpg' height='90'> <img   src='G_9.jpg' height='90'> <img id='selected'  src='G_1.jpg' height='90'> <img src='G_7.jpg' height='90'>","null","Learning example 0",""
"","","","","","html-button-response","54","216314","0.0-41.0","21","1","2025-01-22 20:10:09","6073afb29c8d06c5d8f22ae9f1371ff8","88.151.63.74","Mozilla/5.0 (Windows NT 10.0; Win64; x64) AppleWebKit/537.36 (KHTML, like Gecko) Chrome/130.0.0.0 Safari/537.36","WebKit","Chrome","130.0.0.0","Windows","10.0","https://app.prolific.com/","en-US,en;q=0.9","678ff417c9cc5df1d1206dcf","679147d2997803490f072fae","679150883d46c8570f3bd618","","null","<img  src='G_3.jpg' height='90'> <img   src='G_5.jpg' height='90'> <img   src='G_9.jpg' height='90'> <img id='selected'  src='G_1.jpg' height='90'> <img id='selected' src='G_7.jpg' height='90'>","null","Learning example 0",""
"","","","","","html-button-response","55","216627","0.0-42.0","21","1","2025-01-22 20:10:09","6073afb29c8d06c5d8f22ae9f1371ff8","88.151.63.74","Mozilla/5.0 (Windows NT 10.0; Win64; x64) AppleWebKit/537.36 (KHTML, like Gecko) Chrome/130.0.0.0 Safari/537.36","WebKit","Chrome","130.0.0.0","Windows","10.0","https://app.prolific.com/","en-US,en;q=0.9","678ff417c9cc5df1d1206dcf","679147d2997803490f072fae","679150883d46c8570f3bd618","","null","<img  src='G_3.jpg' height='90'> <img   src='G_5.jpg' height='90'> <img   src='G_9.jpg' height='90'> <img id='selected'  src='G_1.jpg' height='90'> <img id='selected' src='G_7.jpg' height='90'>","null","Learning example 0",""
"","","","","","html-button-response","56","216770","0.0-43.0-0.0-0.0","21","1","2025-01-22 20:10:09","6073afb29c8d06c5d8f22ae9f1371ff8","88.151.63.74","Mozilla/5.0 (Windows NT 10.0; Win64; x64) AppleWebKit/537.36 (KHTML, like Gecko) Chrome/130.0.0.0 Safari/537.36","WebKit","Chrome","130.0.0.0","Windows","10.0","https://app.prolific.com/","en-US,en;q=0.9","678ff417c9cc5df1d1206dcf","679147d2997803490f072fae","679150883d46c8570f3bd618","","139","<img  src='G_3.jpg' height='90'> <img   src='G_5.jpg' height='90'> <img   src='G_9.jpg' height='90'> <img id='selected'  src='G_1.jpg' height='90'> <img id='selected' src='G_7.jpg' height='90'>","3","Learning example 0",""
"","","","","","html-button-response","57","217290","0.0-43.1-0.1-0.1","21","1","2025-01-22 20:10:09","6073afb29c8d06c5d8f22ae9f1371ff8","88.151.63.74","Mozilla/5.0 (Windows NT 10.0; Win64; x64) AppleWebKit/537.36 (KHTML, like Gecko) Chrome/130.0.0.0 Safari/537.36","WebKit","Chrome","130.0.0.0","Windows","10.0","https://app.prolific.com/","en-US,en;q=0.9","678ff417c9cc5df1d1206dcf","679147d2997803490f072fae","679150883d46c8570f3bd618","","516","<img  src='G_3.jpg' height='90'> <img   src='G_5.jpg' height='90'> <img   src='G_9.jpg' height='90'> <img id='selected'  src='G_1.jpg' height='90'> <img id='selected' src='G_7.jpg' height='90'>","4","Learning example 0",""
"","","","","","html-button-response","58","217510","0.0-44.0","21","1","2025-01-22 20:10:09","6073afb29c8d06c5d8f22ae9f1371ff8","88.151.63.74","Mozilla/5.0 (Windows NT 10.0; Win64; x64) AppleWebKit/537.36 (KHTML, like Gecko) Chrome/130.0.0.0 Safari/537.36","WebKit","Chrome","130.0.0.0","Windows","10.0","https://app.prolific.com/","en-US,en;q=0.9","678ff417c9cc5df1d1206dcf","679147d2997803490f072fae","679150883d46c8570f3bd618","","null","<img  src='G_3.jpg' height='90'> <img   src='G_5.jpg' height='90'> <img   src='G_9.jpg' height='90'> <img   src='G_1.jpg' height='90'> <img  src='G_7.jpg' height='90'>","null","Learning example 0",""
"","","","","","html-keyboard-response","59","225223","0.0-45.0","21","1","2025-01-22 20:10:09","6073afb29c8d06c5d8f22ae9f1371ff8","88.151.63.74","Mozilla/5.0 (Windows NT 10.0; Win64; x64) AppleWebKit/537.36 (KHTML, like Gecko) Chrome/130.0.0.0 Safari/537.36","WebKit","Chrome","130.0.0.0","Windows","10.0","https://app.prolific.com/","en-US,en;q=0.9","678ff417c9cc5df1d1206dcf","679147d2997803490f072fae","679150883d46c8570f3bd618","","7711","[""Final order was 1,2,3,4,5. The initial order was 2,1,3,4,5.<br>It took 1 swaps to sort it correctly with Omgne Sort. <br><br>Press Enter to continue.""]","enter","",""
"","","","","","instructions","60","292697","0.0-46.0","21","1","2025-01-22 20:10:09","6073afb29c8d06c5d8f22ae9f1371ff8","88.151.63.74","Mozilla/5.0 (Windows NT 10.0; Win64; x64) AppleWebKit/537.36 (KHTML, like Gecko) Chrome/130.0.0.0 Safari/537.36","WebKit","Chrome","130.0.0.0","Windows","10.0","https://app.prolific.com/","en-US,en;q=0.9","678ff417c9cc5df1d1206dcf","679147d2997803490f072fae","679150883d46c8570f3bd618","[{""page_index"":0,""viewing_time"":23760},{""page_index"":1,""viewing_time"":9312},{""page_index"":2,""viewing_time"":10192},{""page_index"":3,""viewing_time"":24208}]","67473","","","",""
"","","","","","html-keyboard-response","61","302223","0.0-47.0","21","1","2025-01-22 20:10:09","6073afb29c8d06c5d8f22ae9f1371ff8","88.151.63.74","Mozilla/5.0 (Windows NT 10.0; Win64; x64) AppleWebKit/537.36 (KHTML, like Gecko) Chrome/130.0.0.0 Safari/537.36","WebKit","Chrome","130.0.0.0","Windows","10.0","https://app.prolific.com/","en-US,en;q=0.9","678ff417c9cc5df1d1206dcf","679147d2997803490f072fae","679150883d46c8570f3bd618","","9521","[""Example 2<br><br>You will watch Omnge Sort in action. Try to identify any patterns in the comparisons made by this method. <br><br>Press Enter to continue.""]","enter","",""
"","","","","","html-keyboard-response","62","302742","0.0-48.0","21","1","2025-01-22 20:10:09","6073afb29c8d06c5d8f22ae9f1371ff8","88.151.63.74","Mozilla/5.0 (Windows NT 10.0; Win64; x64) AppleWebKit/537.36 (KHTML, like Gecko) Chrome/130.0.0.0 Safari/537.36","WebKit","Chrome","130.0.0.0","Windows","10.0","https://app.prolific.com/","en-US,en;q=0.9","678ff417c9cc5df1d1206dcf","679147d2997803490f072fae","679150883d46c8570f3bd618","","null","<img id='selected' src='G_5.jpg' height='90'> <img src='G_3.jpg' height='90'> <img src='G_9.jpg' height='90'> <img src='G_1.jpg' height='90'> <img src='G_7.jpg' height='90'>","null","Animation1",""
"","","","","","html-keyboard-response","63","303254","0.0-49.0","21","1","2025-01-22 20:10:09","6073afb29c8d06c5d8f22ae9f1371ff8","88.151.63.74","Mozilla/5.0 (Windows NT 10.0; Win64; x64) AppleWebKit/537.36 (KHTML, like Gecko) Chrome/130.0.0.0 Safari/537.36","WebKit","Chrome","130.0.0.0","Windows","10.0","https://app.prolific.com/","en-US,en;q=0.9","678ff417c9cc5df1d1206dcf","679147d2997803490f072fae","679150883d46c8570f3bd618","","null","<img id='selected' src='G_5.jpg' height='90'> <img id='selected' src='G_3.jpg' height='90'> <img src='G_9.jpg' height='90'> <img src='G_1.jpg' height='90'> <img src='G_7.jpg' height='90'>","null","Animation1",""
"","","","","","html-keyboard-response","64","303768","0.0-50.0","21","1","2025-01-22 20:10:09","6073afb29c8d06c5d8f22ae9f1371ff8","88.151.63.74","Mozilla/5.0 (Windows NT 10.0; Win64; x64) AppleWebKit/537.36 (KHTML, like Gecko) Chrome/130.0.0.0 Safari/537.36","WebKit","Chrome","130.0.0.0","Windows","10.0","https://app.prolific.com/","en-US,en;q=0.9","678ff417c9cc5df1d1206dcf","679147d2997803490f072fae","679150883d46c8570f3bd618","","null","<img id='swapped' src='G_3.jpg' height='90'> <img id='swapped' src='G_5.jpg' height='90'> <img src='G_9.jpg' height='90'> <img src='G_1.jpg' height='90'> <img src='G_7.jpg' height='90'>","null","Animation1",""
"","","","","","html-keyboard-response","65","304078","0.0-51.0","21","1","2025-01-22 20:10:09","6073afb29c8d06c5d8f22ae9f1371ff8","88.151.63.74","Mozilla/5.0 (Windows NT 10.0; Win64; x64) AppleWebKit/537.36 (KHTML, like Gecko) Chrome/130.0.0.0 Safari/537.36","WebKit","Chrome","130.0.0.0","Windows","10.0","https://app.prolific.com/","en-US,en;q=0.9","678ff417c9cc5df1d1206dcf","679147d2997803490f072fae","679150883d46c8570f3bd618","","null","<img  src='G_3.jpg' height='90'> <img  src='G_5.jpg' height='90'> <img src='G_9.jpg' height='90'> <img src='G_1.jpg' height='90'> <img src='G_7.jpg' height='90'>","null","Animation1",""
"","","","","","html-keyboard-response","66","304594","0.0-52.0","21","1","2025-01-22 20:10:09","6073afb29c8d06c5d8f22ae9f1371ff8","88.151.63.74","Mozilla/5.0 (Windows NT 10.0; Win64; x64) AppleWebKit/537.36 (KHTML, like Gecko) Chrome/130.0.0.0 Safari/537.36","WebKit","Chrome","130.0.0.0","Windows","10.0","https://app.prolific.com/","en-US,en;q=0.9","678ff417c9cc5df1d1206dcf","679147d2997803490f072fae","679150883d46c8570f3bd618","","null","<img  src='G_3.jpg' height='90'> <img id='selected'  src='G_5.jpg' height='90'> <img src='G_9.jpg' height='90'> <img src='G_1.jpg' height='90'> <img src='G_7.jpg' height='90'>","null","Animation1",""
"","","","","","html-keyboard-response","67","305106","0.0-53.0","21","1","2025-01-22 20:10:09","6073afb29c8d06c5d8f22ae9f1371ff8","88.151.63.74","Mozilla/5.0 (Windows NT 10.0; Win64; x64) AppleWebKit/537.36 (KHTML, like Gecko) Chrome/130.0.0.0 Safari/537.36","WebKit","Chrome","130.0.0.0","Windows","10.0","https://app.prolific.com/","en-US,en;q=0.9","678ff417c9cc5df1d1206dcf","679147d2997803490f072fae","679150883d46c8570f3bd618","","null","<img  src='G_3.jpg' height='90'> <img id='selected'  src='G_5.jpg' height='90'> <img id='selected' src='G_9.jpg' height='90'> <img src='G_1.jpg' height='90'> <img src='G_7.jpg' height='90'>","null","Animation1",""
"","","","","","html-keyboard-response","68","305616","0.0-54.0","21","1","2025-01-22 20:10:09","6073afb29c8d06c5d8f22ae9f1371ff8","88.151.63.74","Mozilla/5.0 (Windows NT 10.0; Win64; x64) AppleWebKit/537.36 (KHTML, like Gecko) Chrome/130.0.0.0 Safari/537.36","WebKit","Chrome","130.0.0.0","Windows","10.0","https://app.prolific.com/","en-US,en;q=0.9","678ff417c9cc5df1d1206dcf","679147d2997803490f072fae","679150883d46c8570f3bd618","","null","<img  src='G_3.jpg' height='90'> <img id='swapped' src='G_9.jpg' height='90'> <img id='swapped'  src='G_5.jpg' height='90'> <img src='G_1.jpg' height='90'> <img src='G_7.jpg' height='90'>","null","Animation1",""
"","","","","","html-keyboard-response","69","305924","0.0-55.0","21","1","2025-01-22 20:10:09","6073afb29c8d06c5d8f22ae9f1371ff8","88.151.63.74","Mozilla/5.0 (Windows NT 10.0; Win64; x64) AppleWebKit/537.36 (KHTML, like Gecko) Chrome/130.0.0.0 Safari/537.36","WebKit","Chrome","130.0.0.0","Windows","10.0","https://app.prolific.com/","en-US,en;q=0.9","678ff417c9cc5df1d1206dcf","679147d2997803490f072fae","679150883d46c8570f3bd618","","null","<img  src='G_3.jpg' height='90'> <img  src='G_9.jpg' height='90'> <img   src='G_5.jpg' height='90'> <img src='G_1.jpg' height='90'> <img src='G_7.jpg' height='90'>","null","Animation1",""
"","","","","","html-keyboard-response","70","306438","0.0-56.0","21","1","2025-01-22 20:10:09","6073afb29c8d06c5d8f22ae9f1371ff8","88.151.63.74","Mozilla/5.0 (Windows NT 10.0; Win64; x64) AppleWebKit/537.36 (KHTML, like Gecko) Chrome/130.0.0.0 Safari/537.36","WebKit","Chrome","130.0.0.0","Windows","10.0","https://app.prolific.com/","en-US,en;q=0.9","678ff417c9cc5df1d1206dcf","679147d2997803490f072fae","679150883d46c8570f3bd618","","null","<img id='selected'  src='G_3.jpg' height='90'> <img  src='G_9.jpg' height='90'> <img   src='G_5.jpg' height='90'> <img src='G_1.jpg' height='90'> <img src='G_7.jpg' height='90'>","null","Animation1",""
"","","","","","html-keyboard-response","71","306949","0.0-57.0","21","1","2025-01-22 20:10:09","6073afb29c8d06c5d8f22ae9f1371ff8","88.151.63.74","Mozilla/5.0 (Windows NT 10.0; Win64; x64) AppleWebKit/537.36 (KHTML, like Gecko) Chrome/130.0.0.0 Safari/537.36","WebKit","Chrome","130.0.0.0","Windows","10.0","https://app.prolific.com/","en-US,en;q=0.9","678ff417c9cc5df1d1206dcf","679147d2997803490f072fae","679150883d46c8570f3bd618","","null","<img id='selected'  src='G_3.jpg' height='90'> <img id='selected'  src='G_9.jpg' height='90'> <img   src='G_5.jpg' height='90'> <img src='G_1.jpg' height='90'> <img src='G_7.jpg' height='90'>","null","Animation1",""
"","","","","","html-keyboard-response","72","307462","0.0-58.0","21","1","2025-01-22 20:10:09","6073afb29c8d06c5d8f22ae9f1371ff8","88.151.63.74","Mozilla/5.0 (Windows NT 10.0; Win64; x64) AppleWebKit/537.36 (KHTML, like Gecko) Chrome/130.0.0.0 Safari/537.36","WebKit","Chrome","130.0.0.0","Windows","10.0","https://app.prolific.com/","en-US,en;q=0.9","678ff417c9cc5df1d1206dcf","679147d2997803490f072fae","679150883d46c8570f3bd618","","null","<img id='swapped'  src='G_9.jpg' height='90'> <img id='swapped'  src='G_3.jpg' height='90'> <img   src='G_5.jpg' height='90'> <img src='G_1.jpg' height='90'> <img src='G_7.jpg' height='90'>","null","Animation1",""
"","","","","","html-keyboard-response","73","307773","0.0-59.0","21","1","2025-01-22 20:10:09","6073afb29c8d06c5d8f22ae9f1371ff8","88.151.63.74","Mozilla/5.0 (Windows NT 10.0; Win64; x64) AppleWebKit/537.36 (KHTML, like Gecko) Chrome/130.0.0.0 Safari/537.36","WebKit","Chrome","130.0.0.0","Windows","10.0","https://app.prolific.com/","en-US,en;q=0.9","678ff417c9cc5df1d1206dcf","679147d2997803490f072fae","679150883d46c8570f3bd618","","null","<img   src='G_9.jpg' height='90'> <img   src='G_3.jpg' height='90'> <img   src='G_5.jpg' height='90'> <img src='G_1.jpg' height='90'> <img src='G_7.jpg' height='90'>","null","Animation1",""
"","","","","","html-keyboard-response","74","308286","0.0-60.0","21","1","2025-01-22 20:10:09","6073afb29c8d06c5d8f22ae9f1371ff8","88.151.63.74","Mozilla/5.0 (Windows NT 10.0; Win64; x64) AppleWebKit/537.36 (KHTML, like Gecko) Chrome/130.0.0.0 Safari/537.36","WebKit","Chrome","130.0.0.0","Windows","10.0","https://app.prolific.com/","en-US,en;q=0.9","678ff417c9cc5df1d1206dcf","679147d2997803490f072fae","679150883d46c8570f3bd618","","null","<img   src='G_9.jpg' height='90'> <img   src='G_3.jpg' height='90'> <img id='selected'   src='G_5.jpg' height='90'> <img src='G_1.jpg' height='90'> <img src='G_7.jpg' height='90'>","null","Animation1",""
"","","","","","html-keyboard-response","75","308799","0.0-61.0","21","1","2025-01-22 20:10:09","6073afb29c8d06c5d8f22ae9f1371ff8","88.151.63.74","Mozilla/5.0 (Windows NT 10.0; Win64; x64) AppleWebKit/537.36 (KHTML, like Gecko) Chrome/130.0.0.0 Safari/537.36","WebKit","Chrome","130.0.0.0","Windows","10.0","https://app.prolific.com/","en-US,en;q=0.9","678ff417c9cc5df1d1206dcf","679147d2997803490f072fae","679150883d46c8570f3bd618","","null","<img   src='G_9.jpg' height='90'> <img   src='G_3.jpg' height='90'> <img id='selected'   src='G_5.jpg' height='90'> <img id='selected' src='G_1.jpg' height='90'> <img src='G_7.jpg' height='90'>","null","Animation1",""
"","","","","","html-keyboard-response","76","309308","0.0-62.0","21","1","2025-01-22 20:10:09","6073afb29c8d06c5d8f22ae9f1371ff8","88.151.63.74","Mozilla/5.0 (Windows NT 10.0; Win64; x64) AppleWebKit/537.36 (KHTML, like Gecko) Chrome/130.0.0.0 Safari/537.36","WebKit","Chrome","130.0.0.0","Windows","10.0","https://app.prolific.com/","en-US,en;q=0.9","678ff417c9cc5df1d1206dcf","679147d2997803490f072fae","679150883d46c8570f3bd618","","null","<img   src='G_9.jpg' height='90'> <img   src='G_3.jpg' height='90'> <img id='swapped' src='G_1.jpg' height='90'> <img id='swapped'   src='G_5.jpg' height='90'> <img src='G_7.jpg' height='90'>","null","Animation1",""
"","","","","","html-keyboard-response","77","309621","0.0-63.0","21","1","2025-01-22 20:10:09","6073afb29c8d06c5d8f22ae9f1371ff8","88.151.63.74","Mozilla/5.0 (Windows NT 10.0; Win64; x64) AppleWebKit/537.36 (KHTML, like Gecko) Chrome/130.0.0.0 Safari/537.36","WebKit","Chrome","130.0.0.0","Windows","10.0","https://app.prolific.com/","en-US,en;q=0.9","678ff417c9cc5df1d1206dcf","679147d2997803490f072fae","679150883d46c8570f3bd618","","null","<img   src='G_9.jpg' height='90'> <img   src='G_3.jpg' height='90'> <img  src='G_1.jpg' height='90'> <img    src='G_5.jpg' height='90'> <img src='G_7.jpg' height='90'>","null","Animation1",""
"","","","","","html-keyboard-response","78","310138","0.0-64.0","21","1","2025-01-22 20:10:09","6073afb29c8d06c5d8f22ae9f1371ff8","88.151.63.74","Mozilla/5.0 (Windows NT 10.0; Win64; x64) AppleWebKit/537.36 (KHTML, like Gecko) Chrome/130.0.0.0 Safari/537.36","WebKit","Chrome","130.0.0.0","Windows","10.0","https://app.prolific.com/","en-US,en;q=0.9","678ff417c9cc5df1d1206dcf","679147d2997803490f072fae","679150883d46c8570f3bd618","","null","<img   src='G_9.jpg' height='90'> <img id='selected'   src='G_3.jpg' height='90'> <img  src='G_1.jpg' height='90'> <img    src='G_5.jpg' height='90'> <img src='G_7.jpg' height='90'>","null","Animation1",""
"","","","","","html-keyboard-response","79","310651","0.0-65.0","21","1","2025-01-22 20:10:09","6073afb29c8d06c5d8f22ae9f1371ff8","88.151.63.74","Mozilla/5.0 (Windows NT 10.0; Win64; x64) AppleWebKit/537.36 (KHTML, like Gecko) Chrome/130.0.0.0 Safari/537.36","WebKit","Chrome","130.0.0.0","Windows","10.0","https://app.prolific.com/","en-US,en;q=0.9","678ff417c9cc5df1d1206dcf","679147d2997803490f072fae","679150883d46c8570f3bd618","","null","<img   src='G_9.jpg' height='90'> <img id='selected'   src='G_3.jpg' height='90'> <img id='selected'  src='G_1.jpg' height='90'> <img    src='G_5.jpg' height='90'> <img src='G_7.jpg' height='90'>","null","Animation1",""
"","","","","","html-keyboard-response","80","311155","0.0-66.0","21","1","2025-01-22 20:10:09","6073afb29c8d06c5d8f22ae9f1371ff8","88.151.63.74","Mozilla/5.0 (Windows NT 10.0; Win64; x64) AppleWebKit/537.36 (KHTML, like Gecko) Chrome/130.0.0.0 Safari/537.36","WebKit","Chrome","130.0.0.0","Windows","10.0","https://app.prolific.com/","en-US,en;q=0.9","678ff417c9cc5df1d1206dcf","679147d2997803490f072fae","679150883d46c8570f3bd618","","null","<img   src='G_9.jpg' height='90'> <img id='swapped'  src='G_1.jpg' height='90'> <img id='swapped'   src='G_3.jpg' height='90'> <img    src='G_5.jpg' height='90'> <img src='G_7.jpg' height='90'>","null","Animation1",""
"","","","","","html-keyboard-response","81","311469","0.0-67.0","21","1","2025-01-22 20:10:09","6073afb29c8d06c5d8f22ae9f1371ff8","88.151.63.74","Mozilla/5.0 (Windows NT 10.0; Win64; x64) AppleWebKit/537.36 (KHTML, like Gecko) Chrome/130.0.0.0 Safari/537.36","WebKit","Chrome","130.0.0.0","Windows","10.0","https://app.prolific.com/","en-US,en;q=0.9","678ff417c9cc5df1d1206dcf","679147d2997803490f072fae","679150883d46c8570f3bd618","","null","<img   src='G_9.jpg' height='90'> <img   src='G_1.jpg' height='90'> <img    src='G_3.jpg' height='90'> <img    src='G_5.jpg' height='90'> <img src='G_7.jpg' height='90'>","null","Animation1",""
"","","","","","html-keyboard-response","82","311975","0.0-68.0","21","1","2025-01-22 20:10:09","6073afb29c8d06c5d8f22ae9f1371ff8","88.151.63.74","Mozilla/5.0 (Windows NT 10.0; Win64; x64) AppleWebKit/537.36 (KHTML, like Gecko) Chrome/130.0.0.0 Safari/537.36","WebKit","Chrome","130.0.0.0","Windows","10.0","https://app.prolific.com/","en-US,en;q=0.9","678ff417c9cc5df1d1206dcf","679147d2997803490f072fae","679150883d46c8570f3bd618","","null","<img id='selected'   src='G_9.jpg' height='90'> <img   src='G_1.jpg' height='90'> <img    src='G_3.jpg' height='90'> <img    src='G_5.jpg' height='90'> <img src='G_7.jpg' height='90'>","null","Animation1",""
"","","","","","html-keyboard-response","83","312481","0.0-69.0","21","1","2025-01-22 20:10:09","6073afb29c8d06c5d8f22ae9f1371ff8","88.151.63.74","Mozilla/5.0 (Windows NT 10.0; Win64; x64) AppleWebKit/537.36 (KHTML, like Gecko) Chrome/130.0.0.0 Safari/537.36","WebKit","Chrome","130.0.0.0","Windows","10.0","https://app.prolific.com/","en-US,en;q=0.9","678ff417c9cc5df1d1206dcf","679147d2997803490f072fae","679150883d46c8570f3bd618","","null","<img id='selected'   src='G_9.jpg' height='90'> <img id='selected'   src='G_1.jpg' height='90'> <img    src='G_3.jpg' height='90'> <img    src='G_5.jpg' height='90'> <img src='G_7.jpg' height='90'>","null","Animation1",""
"","","","","","html-keyboard-response","84","312988","0.0-70.0","21","1","2025-01-22 20:10:09","6073afb29c8d06c5d8f22ae9f1371ff8","88.151.63.74","Mozilla/5.0 (Windows NT 10.0; Win64; x64) AppleWebKit/537.36 (KHTML, like Gecko) Chrome/130.0.0.0 Safari/537.36","WebKit","Chrome","130.0.0.0","Windows","10.0","https://app.prolific.com/","en-US,en;q=0.9","678ff417c9cc5df1d1206dcf","679147d2997803490f072fae","679150883d46c8570f3bd618","","null","<img id='swapped'   src='G_1.jpg' height='90'> <img id='swapped'   src='G_9.jpg' height='90'> <img    src='G_3.jpg' height='90'> <img    src='G_5.jpg' height='90'> <img src='G_7.jpg' height='90'>","null","Animation1",""
"","","","","","html-keyboard-response","85","313301","0.0-71.0","21","1","2025-01-22 20:10:09","6073afb29c8d06c5d8f22ae9f1371ff8","88.151.63.74","Mozilla/5.0 (Windows NT 10.0; Win64; x64) AppleWebKit/537.36 (KHTML, like Gecko) Chrome/130.0.0.0 Safari/537.36","WebKit","Chrome","130.0.0.0","Windows","10.0","https://app.prolific.com/","en-US,en;q=0.9","678ff417c9cc5df1d1206dcf","679147d2997803490f072fae","679150883d46c8570f3bd618","","null","<img    src='G_1.jpg' height='90'> <img    src='G_9.jpg' height='90'> <img    src='G_3.jpg' height='90'> <img    src='G_5.jpg' height='90'> <img src='G_7.jpg' height='90'>","null","Animation1",""
"","","","","","html-keyboard-response","86","313806","0.0-72.0","21","1","2025-01-22 20:10:09","6073afb29c8d06c5d8f22ae9f1371ff8","88.151.63.74","Mozilla/5.0 (Windows NT 10.0; Win64; x64) AppleWebKit/537.36 (KHTML, like Gecko) Chrome/130.0.0.0 Safari/537.36","WebKit","Chrome","130.0.0.0","Windows","10.0","https://app.prolific.com/","en-US,en;q=0.9","678ff417c9cc5df1d1206dcf","679147d2997803490f072fae","679150883d46c8570f3bd618","","null","<img    src='G_1.jpg' height='90'> <img    src='G_9.jpg' height='90'> <img    src='G_3.jpg' height='90'> <img id='selected'    src='G_5.jpg' height='90'> <img src='G_7.jpg' height='90'>","null","Animation1",""
"","","","","","html-keyboard-response","87","314314","0.0-73.0","21","1","2025-01-22 20:10:09","6073afb29c8d06c5d8f22ae9f1371ff8","88.151.63.74","Mozilla/5.0 (Windows NT 10.0; Win64; x64) AppleWebKit/537.36 (KHTML, like Gecko) Chrome/130.0.0.0 Safari/537.36","WebKit","Chrome","130.0.0.0","Windows","10.0","https://app.prolific.com/","en-US,en;q=0.9","678ff417c9cc5df1d1206dcf","679147d2997803490f072fae","679150883d46c8570f3bd618","","null","<img    src='G_1.jpg' height='90'> <img    src='G_9.jpg' height='90'> <img    src='G_3.jpg' height='90'> <img id='selected'    src='G_5.jpg' height='90'> <img id='selected' src='G_7.jpg' height='90'>","null","Animation1",""
"","","","","","html-keyboard-response","88","314820","0.0-74.0","21","1","2025-01-22 20:10:09","6073afb29c8d06c5d8f22ae9f1371ff8","88.151.63.74","Mozilla/5.0 (Windows NT 10.0; Win64; x64) AppleWebKit/537.36 (KHTML, like Gecko) Chrome/130.0.0.0 Safari/537.36","WebKit","Chrome","130.0.0.0","Windows","10.0","https://app.prolific.com/","en-US,en;q=0.9","678ff417c9cc5df1d1206dcf","679147d2997803490f072fae","679150883d46c8570f3bd618","","null","<img    src='G_1.jpg' height='90'> <img    src='G_9.jpg' height='90'> <img    src='G_3.jpg' height='90'> <img id='swapped' src='G_7.jpg' height='90'> <img id='swapped'    src='G_5.jpg' height='90'>","null","Animation1",""
"","","","","","html-keyboard-response","89","315134","0.0-75.0","21","1","2025-01-22 20:10:09","6073afb29c8d06c5d8f22ae9f1371ff8","88.151.63.74","Mozilla/5.0 (Windows NT 10.0; Win64; x64) AppleWebKit/537.36 (KHTML, like Gecko) Chrome/130.0.0.0 Safari/537.36","WebKit","Chrome","130.0.0.0","Windows","10.0","https://app.prolific.com/","en-US,en;q=0.9","678ff417c9cc5df1d1206dcf","679147d2997803490f072fae","679150883d46c8570f3bd618","","null","<img    src='G_1.jpg' height='90'> <img    src='G_9.jpg' height='90'> <img    src='G_3.jpg' height='90'> <img  src='G_7.jpg' height='90'> <img     src='G_5.jpg' height='90'>","null","Animation1",""
"","","","","","html-keyboard-response","90","315642","0.0-76.0","21","1","2025-01-22 20:10:09","6073afb29c8d06c5d8f22ae9f1371ff8","88.151.63.74","Mozilla/5.0 (Windows NT 10.0; Win64; x64) AppleWebKit/537.36 (KHTML, like Gecko) Chrome/130.0.0.0 Safari/537.36","WebKit","Chrome","130.0.0.0","Windows","10.0","https://app.prolific.com/","en-US,en;q=0.9","678ff417c9cc5df1d1206dcf","679147d2997803490f072fae","679150883d46c8570f3bd618","","null","<img    src='G_1.jpg' height='90'> <img    src='G_9.jpg' height='90'> <img id='selected'    src='G_3.jpg' height='90'> <img  src='G_7.jpg' height='90'> <img     src='G_5.jpg' height='90'>","null","Animation1",""
"","","","","","html-keyboard-response","91","316155","0.0-77.0","21","1","2025-01-22 20:10:09","6073afb29c8d06c5d8f22ae9f1371ff8","88.151.63.74","Mozilla/5.0 (Windows NT 10.0; Win64; x64) AppleWebKit/537.36 (KHTML, like Gecko) Chrome/130.0.0.0 Safari/537.36","WebKit","Chrome","130.0.0.0","Windows","10.0","https://app.prolific.com/","en-US,en;q=0.9","678ff417c9cc5df1d1206dcf","679147d2997803490f072fae","679150883d46c8570f3bd618","","null","<img    src='G_1.jpg' height='90'> <img    src='G_9.jpg' height='90'> <img id='selected'    src='G_3.jpg' height='90'> <img id='selected'  src='G_7.jpg' height='90'> <img     src='G_5.jpg' height='90'>","null","Animation1",""
"","","","","","html-keyboard-response","92","316669","0.0-78.0","21","1","2025-01-22 20:10:09","6073afb29c8d06c5d8f22ae9f1371ff8","88.151.63.74","Mozilla/5.0 (Windows NT 10.0; Win64; x64) AppleWebKit/537.36 (KHTML, like Gecko) Chrome/130.0.0.0 Safari/537.36","WebKit","Chrome","130.0.0.0","Windows","10.0","https://app.prolific.com/","en-US,en;q=0.9","678ff417c9cc5df1d1206dcf","679147d2997803490f072fae","679150883d46c8570f3bd618","","null","<img    src='G_1.jpg' height='90'> <img    src='G_9.jpg' height='90'> <img id='swapped'  src='G_7.jpg' height='90'> <img id='swapped'    src='G_3.jpg' height='90'> <img     src='G_5.jpg' height='90'>","null","Animation1",""
"","","","","","html-keyboard-response","93","316977","0.0-79.0","21","1","2025-01-22 20:10:09","6073afb29c8d06c5d8f22ae9f1371ff8","88.151.63.74","Mozilla/5.0 (Windows NT 10.0; Win64; x64) AppleWebKit/537.36 (KHTML, like Gecko) Chrome/130.0.0.0 Safari/537.36","WebKit","Chrome","130.0.0.0","Windows","10.0","https://app.prolific.com/","en-US,en;q=0.9","678ff417c9cc5df1d1206dcf","679147d2997803490f072fae","679150883d46c8570f3bd618","","null","<img    src='G_1.jpg' height='90'> <img    src='G_9.jpg' height='90'> <img   src='G_7.jpg' height='90'> <img     src='G_3.jpg' height='90'> <img     src='G_5.jpg' height='90'>","null","Animation1",""
"","","","","","html-keyboard-response","94","317490","0.0-80.0","21","1","2025-01-22 20:10:09","6073afb29c8d06c5d8f22ae9f1371ff8","88.151.63.74","Mozilla/5.0 (Windows NT 10.0; Win64; x64) AppleWebKit/537.36 (KHTML, like Gecko) Chrome/130.0.0.0 Safari/537.36","WebKit","Chrome","130.0.0.0","Windows","10.0","https://app.prolific.com/","en-US,en;q=0.9","678ff417c9cc5df1d1206dcf","679147d2997803490f072fae","679150883d46c8570f3bd618","","null","<img    src='G_1.jpg' height='90'> <img id='selected'    src='G_9.jpg' height='90'> <img   src='G_7.jpg' height='90'> <img     src='G_3.jpg' height='90'> <img     src='G_5.jpg' height='90'>","null","Animation1",""
"","","","","","html-keyboard-response","95","318005","0.0-81.0","21","1","2025-01-22 20:10:09","6073afb29c8d06c5d8f22ae9f1371ff8","88.151.63.74","Mozilla/5.0 (Windows NT 10.0; Win64; x64) AppleWebKit/537.36 (KHTML, like Gecko) Chrome/130.0.0.0 Safari/537.36","WebKit","Chrome","130.0.0.0","Windows","10.0","https://app.prolific.com/","en-US,en;q=0.9","678ff417c9cc5df1d1206dcf","679147d2997803490f072fae","679150883d46c8570f3bd618","","null","<img    src='G_1.jpg' height='90'> <img id='selected'    src='G_9.jpg' height='90'> <img id='selected'   src='G_7.jpg' height='90'> <img     src='G_3.jpg' height='90'> <img     src='G_5.jpg' height='90'>","null","Animation1",""
"","","","","","html-keyboard-response","96","318519","0.0-82.0","21","1","2025-01-22 20:10:09","6073afb29c8d06c5d8f22ae9f1371ff8","88.151.63.74","Mozilla/5.0 (Windows NT 10.0; Win64; x64) AppleWebKit/537.36 (KHTML, like Gecko) Chrome/130.0.0.0 Safari/537.36","WebKit","Chrome","130.0.0.0","Windows","10.0","https://app.prolific.com/","en-US,en;q=0.9","678ff417c9cc5df1d1206dcf","679147d2997803490f072fae","679150883d46c8570f3bd618","","null","<img    src='G_1.jpg' height='90'> <img id='swapped'   src='G_7.jpg' height='90'> <img id='swapped'    src='G_9.jpg' height='90'> <img     src='G_3.jpg' height='90'> <img     src='G_5.jpg' height='90'>","null","Animation1",""
"","","","","","html-keyboard-response","97","318830","0.0-83.0","21","1","2025-01-22 20:10:09","6073afb29c8d06c5d8f22ae9f1371ff8","88.151.63.74","Mozilla/5.0 (Windows NT 10.0; Win64; x64) AppleWebKit/537.36 (KHTML, like Gecko) Chrome/130.0.0.0 Safari/537.36","WebKit","Chrome","130.0.0.0","Windows","10.0","https://app.prolific.com/","en-US,en;q=0.9","678ff417c9cc5df1d1206dcf","679147d2997803490f072fae","679150883d46c8570f3bd618","","null","<img    src='G_1.jpg' height='90'> <img    src='G_7.jpg' height='90'> <img     src='G_9.jpg' height='90'> <img     src='G_3.jpg' height='90'> <img     src='G_5.jpg' height='90'>","null","Animation1",""
"","","","","","html-keyboard-response","98","319337","0.0-84.0","21","1","2025-01-22 20:10:09","6073afb29c8d06c5d8f22ae9f1371ff8","88.151.63.74","Mozilla/5.0 (Windows NT 10.0; Win64; x64) AppleWebKit/537.36 (KHTML, like Gecko) Chrome/130.0.0.0 Safari/537.36","WebKit","Chrome","130.0.0.0","Windows","10.0","https://app.prolific.com/","en-US,en;q=0.9","678ff417c9cc5df1d1206dcf","679147d2997803490f072fae","679150883d46c8570f3bd618","","null","<img id='selected'    src='G_1.jpg' height='90'> <img    src='G_7.jpg' height='90'> <img     src='G_9.jpg' height='90'> <img     src='G_3.jpg' height='90'> <img     src='G_5.jpg' height='90'>","null","Animation1",""
"","","","","","html-keyboard-response","99","319852","0.0-85.0","21","1","2025-01-22 20:10:09","6073afb29c8d06c5d8f22ae9f1371ff8","88.151.63.74","Mozilla/5.0 (Windows NT 10.0; Win64; x64) AppleWebKit/537.36 (KHTML, like Gecko) Chrome/130.0.0.0 Safari/537.36","WebKit","Chrome","130.0.0.0","Windows","10.0","https://app.prolific.com/","en-US,en;q=0.9","678ff417c9cc5df1d1206dcf","679147d2997803490f072fae","679150883d46c8570f3bd618","","null","<img id='selected'    src='G_1.jpg' height='90'> <img id='selected'    src='G_7.jpg' height='90'> <img     src='G_9.jpg' height='90'> <img     src='G_3.jpg' height='90'> <img     src='G_5.jpg' height='90'>","null","Animation1",""
"","","","","","html-keyboard-response","100","320366","0.0-86.0","21","1","2025-01-22 20:10:09","6073afb29c8d06c5d8f22ae9f1371ff8","88.151.63.74","Mozilla/5.0 (Windows NT 10.0; Win64; x64) AppleWebKit/537.36 (KHTML, like Gecko) Chrome/130.0.0.0 Safari/537.36","WebKit","Chrome","130.0.0.0","Windows","10.0","https://app.prolific.com/","en-US,en;q=0.9","678ff417c9cc5df1d1206dcf","679147d2997803490f072fae","679150883d46c8570f3bd618","","null","<img id='swapped'    src='G_7.jpg' height='90'> <img id='swapped'    src='G_1.jpg' height='90'> <img     src='G_9.jpg' height='90'> <img     src='G_3.jpg' height='90'> <img     src='G_5.jpg' height='90'>","null","Animation1",""
"","","","","","html-keyboard-response","101","320677","0.0-87.0","21","1","2025-01-22 20:10:09","6073afb29c8d06c5d8f22ae9f1371ff8","88.151.63.74","Mozilla/5.0 (Windows NT 10.0; Win64; x64) AppleWebKit/537.36 (KHTML, like Gecko) Chrome/130.0.0.0 Safari/537.36","WebKit","Chrome","130.0.0.0","Windows","10.0","https://app.prolific.com/","en-US,en;q=0.9","678ff417c9cc5df1d1206dcf","679147d2997803490f072fae","679150883d46c8570f3bd618","","null","<img     src='G_7.jpg' height='90'> <img     src='G_1.jpg' height='90'> <img     src='G_9.jpg' height='90'> <img     src='G_3.jpg' height='90'> <img     src='G_5.jpg' height='90'>","null","Animation1",""
"","","","","","html-keyboard-response","102","328068","0.0-88.0","21","1","2025-01-22 20:10:09","6073afb29c8d06c5d8f22ae9f1371ff8","88.151.63.74","Mozilla/5.0 (Windows NT 10.0; Win64; x64) AppleWebKit/537.36 (KHTML, like Gecko) Chrome/130.0.0.0 Safari/537.36","WebKit","Chrome","130.0.0.0","Windows","10.0","https://app.prolific.com/","en-US,en;q=0.9","678ff417c9cc5df1d1206dcf","679147d2997803490f072fae","679150883d46c8570f3bd618","","7388","[""Did you notice any patterns? <br><br>Press Enter to watch that example again and follow the steps of Omgne Sort.""]","enter","",""
"","","","","","html-button-response","103","328487","0.0-89.0","21","1","2025-01-22 20:10:09","6073afb29c8d06c5d8f22ae9f1371ff8","88.151.63.74","Mozilla/5.0 (Windows NT 10.0; Win64; x64) AppleWebKit/537.36 (KHTML, like Gecko) Chrome/130.0.0.0 Safari/537.36","WebKit","Chrome","130.0.0.0","Windows","10.0","https://app.prolific.com/","en-US,en;q=0.9","678ff417c9cc5df1d1206dcf","679147d2997803490f072fae","679150883d46c8570f3bd618","","null","<img id='selected' src='G_5.jpg' height='90'> <img src='G_3.jpg' height='90'> <img src='G_9.jpg' height='90'> <img src='G_1.jpg' height='90'> <img src='G_7.jpg' height='90'>","null","Learning example 1",""
"","","","","","html-button-response","104","328797","0.0-90.0","21","1","2025-01-22 20:10:09","6073afb29c8d06c5d8f22ae9f1371ff8","88.151.63.74","Mozilla/5.0 (Windows NT 10.0; Win64; x64) AppleWebKit/537.36 (KHTML, like Gecko) Chrome/130.0.0.0 Safari/537.36","WebKit","Chrome","130.0.0.0","Windows","10.0","https://app.prolific.com/","en-US,en;q=0.9","678ff417c9cc5df1d1206dcf","679147d2997803490f072fae","679150883d46c8570f3bd618","","null","<img id='selected' src='G_5.jpg' height='90'> <img id='selected' src='G_3.jpg' height='90'> <img src='G_9.jpg' height='90'> <img src='G_1.jpg' height='90'> <img src='G_7.jpg' height='90'>","null","Learning example 1",""
"","","","","","html-button-response","105","329109","0.0-91.0","21","1","2025-01-22 20:10:09","6073afb29c8d06c5d8f22ae9f1371ff8","88.151.63.74","Mozilla/5.0 (Windows NT 10.0; Win64; x64) AppleWebKit/537.36 (KHTML, like Gecko) Chrome/130.0.0.0 Safari/537.36","WebKit","Chrome","130.0.0.0","Windows","10.0","https://app.prolific.com/","en-US,en;q=0.9","678ff417c9cc5df1d1206dcf","679147d2997803490f072fae","679150883d46c8570f3bd618","","null","<img id='swapped' src='G_3.jpg' height='90'> <img id='swapped' src='G_5.jpg' height='90'> <img src='G_9.jpg' height='90'> <img src='G_1.jpg' height='90'> <img src='G_7.jpg' height='90'>","null","Learning example 1",""
"","","","","","html-button-response","106","331019","0.0-92.0-0.0-0.0","21","1","2025-01-22 20:10:09","6073afb29c8d06c5d8f22ae9f1371ff8","88.151.63.74","Mozilla/5.0 (Windows NT 10.0; Win64; x64) AppleWebKit/537.36 (KHTML, like Gecko) Chrome/130.0.0.0 Safari/537.36","WebKit","Chrome","130.0.0.0","Windows","10.0","https://app.prolific.com/","en-US,en;q=0.9","678ff417c9cc5df1d1206dcf","679147d2997803490f072fae","679150883d46c8570f3bd618","","1905","<img id='swapped' src='G_3.jpg' height='90'> <img id='swapped' src='G_5.jpg' height='90'> <img src='G_9.jpg' height='90'> <img src='G_1.jpg' height='90'> <img src='G_7.jpg' height='90'>","0","Learning example 1",""
"","","","","","html-button-response","107","331578","0.0-92.1-0.1-0.1","21","1","2025-01-22 20:10:09","6073afb29c8d06c5d8f22ae9f1371ff8","88.151.63.74","Mozilla/5.0 (Windows NT 10.0; Win64; x64) AppleWebKit/537.36 (KHTML, like Gecko) Chrome/130.0.0.0 Safari/537.36","WebKit","Chrome","130.0.0.0","Windows","10.0","https://app.prolific.com/","en-US,en;q=0.9","678ff417c9cc5df1d1206dcf","679147d2997803490f072fae","679150883d46c8570f3bd618","","553","<img id='swapped' src='G_3.jpg' height='90'> <img id='swapped' src='G_5.jpg' height='90'> <img src='G_9.jpg' height='90'> <img src='G_1.jpg' height='90'> <img src='G_7.jpg' height='90'>","1","Learning example 1",""
"","","","","","html-button-response","108","331791","0.0-93.0","21","1","2025-01-22 20:10:09","6073afb29c8d06c5d8f22ae9f1371ff8","88.151.63.74","Mozilla/5.0 (Windows NT 10.0; Win64; x64) AppleWebKit/537.36 (KHTML, like Gecko) Chrome/130.0.0.0 Safari/537.36","WebKit","Chrome","130.0.0.0","Windows","10.0","https://app.prolific.com/","en-US,en;q=0.9","678ff417c9cc5df1d1206dcf","679147d2997803490f072fae","679150883d46c8570f3bd618","","null","<img  src='G_3.jpg' height='90'> <img  src='G_5.jpg' height='90'> <img src='G_9.jpg' height='90'> <img src='G_1.jpg' height='90'> <img src='G_7.jpg' height='90'>","null","Learning example 1",""
"","","","","","html-button-response","109","332196","0.0-94.0","21","1","2025-01-22 20:10:09","6073afb29c8d06c5d8f22ae9f1371ff8","88.151.63.74","Mozilla/5.0 (Windows NT 10.0; Win64; x64) AppleWebKit/537.36 (KHTML, like Gecko) Chrome/130.0.0.0 Safari/537.36","WebKit","Chrome","130.0.0.0","Windows","10.0","https://app.prolific.com/","en-US,en;q=0.9","678ff417c9cc5df1d1206dcf","679147d2997803490f072fae","679150883d46c8570f3bd618","","null","<img  src='G_3.jpg' height='90'> <img id='selected'  src='G_5.jpg' height='90'> <img src='G_9.jpg' height='90'> <img src='G_1.jpg' height='90'> <img src='G_7.jpg' height='90'>","null","Learning example 1",""
"","","","","","html-button-response","110","332506","0.0-95.0","21","1","2025-01-22 20:10:09","6073afb29c8d06c5d8f22ae9f1371ff8","88.151.63.74","Mozilla/5.0 (Windows NT 10.0; Win64; x64) AppleWebKit/537.36 (KHTML, like Gecko) Chrome/130.0.0.0 Safari/537.36","WebKit","Chrome","130.0.0.0","Windows","10.0","https://app.prolific.com/","en-US,en;q=0.9","678ff417c9cc5df1d1206dcf","679147d2997803490f072fae","679150883d46c8570f3bd618","","null","<img  src='G_3.jpg' height='90'> <img id='selected'  src='G_5.jpg' height='90'> <img id='selected' src='G_9.jpg' height='90'> <img src='G_1.jpg' height='90'> <img src='G_7.jpg' height='90'>","null","Learning example 1",""
"","","","","","html-button-response","111","332819","0.0-96.0","21","1","2025-01-22 20:10:09","6073afb29c8d06c5d8f22ae9f1371ff8","88.151.63.74","Mozilla/5.0 (Windows NT 10.0; Win64; x64) AppleWebKit/537.36 (KHTML, like Gecko) Chrome/130.0.0.0 Safari/537.36","WebKit","Chrome","130.0.0.0","Windows","10.0","https://app.prolific.com/","en-US,en;q=0.9","678ff417c9cc5df1d1206dcf","679147d2997803490f072fae","679150883d46c8570f3bd618","","null","<img  src='G_3.jpg' height='90'> <img id='swapped' src='G_9.jpg' height='90'> <img id='swapped'  src='G_5.jpg' height='90'> <img src='G_1.jpg' height='90'> <img src='G_7.jpg' height='90'>","null","Learning example 1",""
"","","","","","html-button-response","112","333547","0.0-97.0-0.0-0.0","21","1","2025-01-22 20:10:09","6073afb29c8d06c5d8f22ae9f1371ff8","88.151.63.74","Mozilla/5.0 (Windows NT 10.0; Win64; x64) AppleWebKit/537.36 (KHTML, like Gecko) Chrome/130.0.0.0 Safari/537.36","WebKit","Chrome","130.0.0.0","Windows","10.0","https://app.prolific.com/","en-US,en;q=0.9","678ff417c9cc5df1d1206dcf","679147d2997803490f072fae","679150883d46c8570f3bd618","","723","<img  src='G_3.jpg' height='90'> <img id='swapped' src='G_9.jpg' height='90'> <img id='swapped'  src='G_5.jpg' height='90'> <img src='G_1.jpg' height='90'> <img src='G_7.jpg' height='90'>","1","Learning example 1",""
"","","","","","html-button-response","113","334363","0.0-97.1-0.1-0.1","21","1","2025-01-22 20:10:09","6073afb29c8d06c5d8f22ae9f1371ff8","88.151.63.74","Mozilla/5.0 (Windows NT 10.0; Win64; x64) AppleWebKit/537.36 (KHTML, like Gecko) Chrome/130.0.0.0 Safari/537.36","WebKit","Chrome","130.0.0.0","Windows","10.0","https://app.prolific.com/","en-US,en;q=0.9","678ff417c9cc5df1d1206dcf","679147d2997803490f072fae","679150883d46c8570f3bd618","","810","<img  src='G_3.jpg' height='90'> <img id='swapped' src='G_9.jpg' height='90'> <img id='swapped'  src='G_5.jpg' height='90'> <img src='G_1.jpg' height='90'> <img src='G_7.jpg' height='90'>","2","Learning example 1",""
"","","","","","html-button-response","114","334582","0.0-98.0","21","1","2025-01-22 20:10:09","6073afb29c8d06c5d8f22ae9f1371ff8","88.151.63.74","Mozilla/5.0 (Windows NT 10.0; Win64; x64) AppleWebKit/537.36 (KHTML, like Gecko) Chrome/130.0.0.0 Safari/537.36","WebKit","Chrome","130.0.0.0","Windows","10.0","https://app.prolific.com/","en-US,en;q=0.9","678ff417c9cc5df1d1206dcf","679147d2997803490f072fae","679150883d46c8570f3bd618","","null","<img  src='G_3.jpg' height='90'> <img  src='G_9.jpg' height='90'> <img   src='G_5.jpg' height='90'> <img src='G_1.jpg' height='90'> <img src='G_7.jpg' height='90'>","null","Learning example 1",""
"","","","","","html-button-response","115","334999","0.0-99.0","21","1","2025-01-22 20:10:09","6073afb29c8d06c5d8f22ae9f1371ff8","88.151.63.74","Mozilla/5.0 (Windows NT 10.0; Win64; x64) AppleWebKit/537.36 (KHTML, like Gecko) Chrome/130.0.0.0 Safari/537.36","WebKit","Chrome","130.0.0.0","Windows","10.0","https://app.prolific.com/","en-US,en;q=0.9","678ff417c9cc5df1d1206dcf","679147d2997803490f072fae","679150883d46c8570f3bd618","","null","<img id='selected'  src='G_3.jpg' height='90'> <img  src='G_9.jpg' height='90'> <img   src='G_5.jpg' height='90'> <img src='G_1.jpg' height='90'> <img src='G_7.jpg' height='90'>","null","Learning example 1",""
"","","","","","html-button-response","116","335312","0.0-100.0","21","1","2025-01-22 20:10:09","6073afb29c8d06c5d8f22ae9f1371ff8","88.151.63.74","Mozilla/5.0 (Windows NT 10.0; Win64; x64) AppleWebKit/537.36 (KHTML, like Gecko) Chrome/130.0.0.0 Safari/537.36","WebKit","Chrome","130.0.0.0","Windows","10.0","https://app.prolific.com/","en-US,en;q=0.9","678ff417c9cc5df1d1206dcf","679147d2997803490f072fae","679150883d46c8570f3bd618","","null","<img id='selected'  src='G_3.jpg' height='90'> <img id='selected'  src='G_9.jpg' height='90'> <img   src='G_5.jpg' height='90'> <img src='G_1.jpg' height='90'> <img src='G_7.jpg' height='90'>","null","Learning example 1",""
"","","","","","html-button-response","117","335621","0.0-101.0","21","1","2025-01-22 20:10:09","6073afb29c8d06c5d8f22ae9f1371ff8","88.151.63.74","Mozilla/5.0 (Windows NT 10.0; Win64; x64) AppleWebKit/537.36 (KHTML, like Gecko) Chrome/130.0.0.0 Safari/537.36","WebKit","Chrome","130.0.0.0","Windows","10.0","https://app.prolific.com/","en-US,en;q=0.9","678ff417c9cc5df1d1206dcf","679147d2997803490f072fae","679150883d46c8570f3bd618","","null","<img id='swapped'  src='G_9.jpg' height='90'> <img id='swapped'  src='G_3.jpg' height='90'> <img   src='G_5.jpg' height='90'> <img src='G_1.jpg' height='90'> <img src='G_7.jpg' height='90'>","null","Learning example 1",""
"","","","","","html-button-response","118","336635","0.0-102.0-0.0-0.0","21","1","2025-01-22 20:10:09","6073afb29c8d06c5d8f22ae9f1371ff8","88.151.63.74","Mozilla/5.0 (Windows NT 10.0; Win64; x64) AppleWebKit/537.36 (KHTML, like Gecko) Chrome/130.0.0.0 Safari/537.36","WebKit","Chrome","130.0.0.0","Windows","10.0","https://app.prolific.com/","en-US,en;q=0.9","678ff417c9cc5df1d1206dcf","679147d2997803490f072fae","679150883d46c8570f3bd618","","1009","<img id='swapped'  src='G_9.jpg' height='90'> <img id='swapped'  src='G_3.jpg' height='90'> <img   src='G_5.jpg' height='90'> <img src='G_1.jpg' height='90'> <img src='G_7.jpg' height='90'>","1","Learning example 1",""
"","","","","","html-button-response","119","337250","0.0-102.1-0.1-0.1","21","1","2025-01-22 20:10:09","6073afb29c8d06c5d8f22ae9f1371ff8","88.151.63.74","Mozilla/5.0 (Windows NT 10.0; Win64; x64) AppleWebKit/537.36 (KHTML, like Gecko) Chrome/130.0.0.0 Safari/537.36","WebKit","Chrome","130.0.0.0","Windows","10.0","https://app.prolific.com/","en-US,en;q=0.9","678ff417c9cc5df1d1206dcf","679147d2997803490f072fae","679150883d46c8570f3bd618","","611","<img id='swapped'  src='G_9.jpg' height='90'> <img id='swapped'  src='G_3.jpg' height='90'> <img   src='G_5.jpg' height='90'> <img src='G_1.jpg' height='90'> <img src='G_7.jpg' height='90'>","0","Learning example 1",""
"","","","","","html-button-response","120","337469","0.0-103.0","21","1","2025-01-22 20:10:09","6073afb29c8d06c5d8f22ae9f1371ff8","88.151.63.74","Mozilla/5.0 (Windows NT 10.0; Win64; x64) AppleWebKit/537.36 (KHTML, like Gecko) Chrome/130.0.0.0 Safari/537.36","WebKit","Chrome","130.0.0.0","Windows","10.0","https://app.prolific.com/","en-US,en;q=0.9","678ff417c9cc5df1d1206dcf","679147d2997803490f072fae","679150883d46c8570f3bd618","","null","<img   src='G_9.jpg' height='90'> <img   src='G_3.jpg' height='90'> <img   src='G_5.jpg' height='90'> <img src='G_1.jpg' height='90'> <img src='G_7.jpg' height='90'>","null","Learning example 1",""
"","","","","","html-button-response","121","337887","0.0-104.0","21","1","2025-01-22 20:10:09","6073afb29c8d06c5d8f22ae9f1371ff8","88.151.63.74","Mozilla/5.0 (Windows NT 10.0; Win64; x64) AppleWebKit/537.36 (KHTML, like Gecko) Chrome/130.0.0.0 Safari/537.36","WebKit","Chrome","130.0.0.0","Windows","10.0","https://app.prolific.com/","en-US,en;q=0.9","678ff417c9cc5df1d1206dcf","679147d2997803490f072fae","679150883d46c8570f3bd618","","null","<img   src='G_9.jpg' height='90'> <img   src='G_3.jpg' height='90'> <img id='selected'   src='G_5.jpg' height='90'> <img src='G_1.jpg' height='90'> <img src='G_7.jpg' height='90'>","null","Learning example 1",""
"","","","","","html-button-response","122","338198","0.0-105.0","21","1","2025-01-22 20:10:09","6073afb29c8d06c5d8f22ae9f1371ff8","88.151.63.74","Mozilla/5.0 (Windows NT 10.0; Win64; x64) AppleWebKit/537.36 (KHTML, like Gecko) Chrome/130.0.0.0 Safari/537.36","WebKit","Chrome","130.0.0.0","Windows","10.0","https://app.prolific.com/","en-US,en;q=0.9","678ff417c9cc5df1d1206dcf","679147d2997803490f072fae","679150883d46c8570f3bd618","","null","<img   src='G_9.jpg' height='90'> <img   src='G_3.jpg' height='90'> <img id='selected'   src='G_5.jpg' height='90'> <img id='selected' src='G_1.jpg' height='90'> <img src='G_7.jpg' height='90'>","null","Learning example 1",""
"","","","","","html-button-response","123","338511","0.0-106.0","21","1","2025-01-22 20:10:09","6073afb29c8d06c5d8f22ae9f1371ff8","88.151.63.74","Mozilla/5.0 (Windows NT 10.0; Win64; x64) AppleWebKit/537.36 (KHTML, like Gecko) Chrome/130.0.0.0 Safari/537.36","WebKit","Chrome","130.0.0.0","Windows","10.0","https://app.prolific.com/","en-US,en;q=0.9","678ff417c9cc5df1d1206dcf","679147d2997803490f072fae","679150883d46c8570f3bd618","","null","<img   src='G_9.jpg' height='90'> <img   src='G_3.jpg' height='90'> <img id='swapped' src='G_1.jpg' height='90'> <img id='swapped'   src='G_5.jpg' height='90'> <img src='G_7.jpg' height='90'>","null","Learning example 1",""
"","","","","","html-button-response","124","339283","0.0-107.0-0.0-0.0","21","1","2025-01-22 20:10:09","6073afb29c8d06c5d8f22ae9f1371ff8","88.151.63.74","Mozilla/5.0 (Windows NT 10.0; Win64; x64) AppleWebKit/537.36 (KHTML, like Gecko) Chrome/130.0.0.0 Safari/537.36","WebKit","Chrome","130.0.0.0","Windows","10.0","https://app.prolific.com/","en-US,en;q=0.9","678ff417c9cc5df1d1206dcf","679147d2997803490f072fae","679150883d46c8570f3bd618","","767","<img   src='G_9.jpg' height='90'> <img   src='G_3.jpg' height='90'> <img id='swapped' src='G_1.jpg' height='90'> <img id='swapped'   src='G_5.jpg' height='90'> <img src='G_7.jpg' height='90'>","2","Learning example 1",""
"","","","","","html-button-response","125","339931","0.0-107.1-0.1-0.1","21","1","2025-01-22 20:10:09","6073afb29c8d06c5d8f22ae9f1371ff8","88.151.63.74","Mozilla/5.0 (Windows NT 10.0; Win64; x64) AppleWebKit/537.36 (KHTML, like Gecko) Chrome/130.0.0.0 Safari/537.36","WebKit","Chrome","130.0.0.0","Windows","10.0","https://app.prolific.com/","en-US,en;q=0.9","678ff417c9cc5df1d1206dcf","679147d2997803490f072fae","679150883d46c8570f3bd618","","642","<img   src='G_9.jpg' height='90'> <img   src='G_3.jpg' height='90'> <img id='swapped' src='G_1.jpg' height='90'> <img id='swapped'   src='G_5.jpg' height='90'> <img src='G_7.jpg' height='90'>","3","Learning example 1",""
"","","","","","html-button-response","126","340151","0.0-108.0","21","1","2025-01-22 20:10:09","6073afb29c8d06c5d8f22ae9f1371ff8","88.151.63.74","Mozilla/5.0 (Windows NT 10.0; Win64; x64) AppleWebKit/537.36 (KHTML, like Gecko) Chrome/130.0.0.0 Safari/537.36","WebKit","Chrome","130.0.0.0","Windows","10.0","https://app.prolific.com/","en-US,en;q=0.9","678ff417c9cc5df1d1206dcf","679147d2997803490f072fae","679150883d46c8570f3bd618","","null","<img   src='G_9.jpg' height='90'> <img   src='G_3.jpg' height='90'> <img  src='G_1.jpg' height='90'> <img    src='G_5.jpg' height='90'> <img src='G_7.jpg' height='90'>","null","Learning example 1",""
"","","","","","html-button-response","127","340568","0.0-109.0","21","1","2025-01-22 20:10:09","6073afb29c8d06c5d8f22ae9f1371ff8","88.151.63.74","Mozilla/5.0 (Windows NT 10.0; Win64; x64) AppleWebKit/537.36 (KHTML, like Gecko) Chrome/130.0.0.0 Safari/537.36","WebKit","Chrome","130.0.0.0","Windows","10.0","https://app.prolific.com/","en-US,en;q=0.9","678ff417c9cc5df1d1206dcf","679147d2997803490f072fae","679150883d46c8570f3bd618","","null","<img   src='G_9.jpg' height='90'> <img id='selected'   src='G_3.jpg' height='90'> <img  src='G_1.jpg' height='90'> <img    src='G_5.jpg' height='90'> <img src='G_7.jpg' height='90'>","null","Learning example 1",""
"","","","","","html-button-response","128","340880","0.0-110.0","21","1","2025-01-22 20:10:09","6073afb29c8d06c5d8f22ae9f1371ff8","88.151.63.74","Mozilla/5.0 (Windows NT 10.0; Win64; x64) AppleWebKit/537.36 (KHTML, like Gecko) Chrome/130.0.0.0 Safari/537.36","WebKit","Chrome","130.0.0.0","Windows","10.0","https://app.prolific.com/","en-US,en;q=0.9","678ff417c9cc5df1d1206dcf","679147d2997803490f072fae","679150883d46c8570f3bd618","","null","<img   src='G_9.jpg' height='90'> <img id='selected'   src='G_3.jpg' height='90'> <img id='selected'  src='G_1.jpg' height='90'> <img    src='G_5.jpg' height='90'> <img src='G_7.jpg' height='90'>","null","Learning example 1",""
"","","","","","html-button-response","129","341189","0.0-111.0","21","1","2025-01-22 20:10:09","6073afb29c8d06c5d8f22ae9f1371ff8","88.151.63.74","Mozilla/5.0 (Windows NT 10.0; Win64; x64) AppleWebKit/537.36 (KHTML, like Gecko) Chrome/130.0.0.0 Safari/537.36","WebKit","Chrome","130.0.0.0","Windows","10.0","https://app.prolific.com/","en-US,en;q=0.9","678ff417c9cc5df1d1206dcf","679147d2997803490f072fae","679150883d46c8570f3bd618","","null","<img   src='G_9.jpg' height='90'> <img id='swapped'  src='G_1.jpg' height='90'> <img id='swapped'   src='G_3.jpg' height='90'> <img    src='G_5.jpg' height='90'> <img src='G_7.jpg' height='90'>","null","Learning example 1",""
"","","","","","html-button-response","130","342242","0.0-112.0-0.0-0.0","21","1","2025-01-22 20:10:09","6073afb29c8d06c5d8f22ae9f1371ff8","88.151.63.74","Mozilla/5.0 (Windows NT 10.0; Win64; x64) AppleWebKit/537.36 (KHTML, like Gecko) Chrome/130.0.0.0 Safari/537.36","WebKit","Chrome","130.0.0.0","Windows","10.0","https://app.prolific.com/","en-US,en;q=0.9","678ff417c9cc5df1d1206dcf","679147d2997803490f072fae","679150883d46c8570f3bd618","","1047","<img   src='G_9.jpg' height='90'> <img id='swapped'  src='G_1.jpg' height='90'> <img id='swapped'   src='G_3.jpg' height='90'> <img    src='G_5.jpg' height='90'> <img src='G_7.jpg' height='90'>","2","Learning example 1",""
"","","","","","html-button-response","131","343067","0.0-112.1-0.1-0.1","21","1","2025-01-22 20:10:09","6073afb29c8d06c5d8f22ae9f1371ff8","88.151.63.74","Mozilla/5.0 (Windows NT 10.0; Win64; x64) AppleWebKit/537.36 (KHTML, like Gecko) Chrome/130.0.0.0 Safari/537.36","WebKit","Chrome","130.0.0.0","Windows","10.0","https://app.prolific.com/","en-US,en;q=0.9","678ff417c9cc5df1d1206dcf","679147d2997803490f072fae","679150883d46c8570f3bd618","","819","<img   src='G_9.jpg' height='90'> <img id='swapped'  src='G_1.jpg' height='90'> <img id='swapped'   src='G_3.jpg' height='90'> <img    src='G_5.jpg' height='90'> <img src='G_7.jpg' height='90'>","1","Learning example 1",""
"","","","","","html-button-response","132","343283","0.0-113.0","21","1","2025-01-22 20:10:09","6073afb29c8d06c5d8f22ae9f1371ff8","88.151.63.74","Mozilla/5.0 (Windows NT 10.0; Win64; x64) AppleWebKit/537.36 (KHTML, like Gecko) Chrome/130.0.0.0 Safari/537.36","WebKit","Chrome","130.0.0.0","Windows","10.0","https://app.prolific.com/","en-US,en;q=0.9","678ff417c9cc5df1d1206dcf","679147d2997803490f072fae","679150883d46c8570f3bd618","","null","<img   src='G_9.jpg' height='90'> <img   src='G_1.jpg' height='90'> <img    src='G_3.jpg' height='90'> <img    src='G_5.jpg' height='90'> <img src='G_7.jpg' height='90'>","null","Learning example 1",""
"","","","","","html-button-response","133","343703","0.0-114.0","21","1","2025-01-22 20:10:09","6073afb29c8d06c5d8f22ae9f1371ff8","88.151.63.74","Mozilla/5.0 (Windows NT 10.0; Win64; x64) AppleWebKit/537.36 (KHTML, like Gecko) Chrome/130.0.0.0 Safari/537.36","WebKit","Chrome","130.0.0.0","Windows","10.0","https://app.prolific.com/","en-US,en;q=0.9","678ff417c9cc5df1d1206dcf","679147d2997803490f072fae","679150883d46c8570f3bd618","","null","<img id='selected'   src='G_9.jpg' height='90'> <img   src='G_1.jpg' height='90'> <img    src='G_3.jpg' height='90'> <img    src='G_5.jpg' height='90'> <img src='G_7.jpg' height='90'>","null","Learning example 1",""
"","","","","","html-button-response","134","344019","0.0-115.0","21","1","2025-01-22 20:10:09","6073afb29c8d06c5d8f22ae9f1371ff8","88.151.63.74","Mozilla/5.0 (Windows NT 10.0; Win64; x64) AppleWebKit/537.36 (KHTML, like Gecko) Chrome/130.0.0.0 Safari/537.36","WebKit","Chrome","130.0.0.0","Windows","10.0","https://app.prolific.com/","en-US,en;q=0.9","678ff417c9cc5df1d1206dcf","679147d2997803490f072fae","679150883d46c8570f3bd618","","null","<img id='selected'   src='G_9.jpg' height='90'> <img id='selected'   src='G_1.jpg' height='90'> <img    src='G_3.jpg' height='90'> <img    src='G_5.jpg' height='90'> <img src='G_7.jpg' height='90'>","null","Learning example 1",""
"","","","","","html-button-response","135","344330","0.0-116.0","21","1","2025-01-22 20:10:09","6073afb29c8d06c5d8f22ae9f1371ff8","88.151.63.74","Mozilla/5.0 (Windows NT 10.0; Win64; x64) AppleWebKit/537.36 (KHTML, like Gecko) Chrome/130.0.0.0 Safari/537.36","WebKit","Chrome","130.0.0.0","Windows","10.0","https://app.prolific.com/","en-US,en;q=0.9","678ff417c9cc5df1d1206dcf","679147d2997803490f072fae","679150883d46c8570f3bd618","","null","<img id='swapped'   src='G_1.jpg' height='90'> <img id='swapped'   src='G_9.jpg' height='90'> <img    src='G_3.jpg' height='90'> <img    src='G_5.jpg' height='90'> <img src='G_7.jpg' height='90'>","null","Learning example 1",""
"","","","","","html-button-response","136","344587","0.0-117.0-0.0-0.0","21","1","2025-01-22 20:10:09","6073afb29c8d06c5d8f22ae9f1371ff8","88.151.63.74","Mozilla/5.0 (Windows NT 10.0; Win64; x64) AppleWebKit/537.36 (KHTML, like Gecko) Chrome/130.0.0.0 Safari/537.36","WebKit","Chrome","130.0.0.0","Windows","10.0","https://app.prolific.com/","en-US,en;q=0.9","678ff417c9cc5df1d1206dcf","679147d2997803490f072fae","679150883d46c8570f3bd618","","252","<img id='swapped'   src='G_1.jpg' height='90'> <img id='swapped'   src='G_9.jpg' height='90'> <img    src='G_3.jpg' height='90'> <img    src='G_5.jpg' height='90'> <img src='G_7.jpg' height='90'>","1","Learning example 1",""
"","","","","","html-button-response","137","345107","0.0-117.1-0.1-0.1","21","1","2025-01-22 20:10:09","6073afb29c8d06c5d8f22ae9f1371ff8","88.151.63.74","Mozilla/5.0 (Windows NT 10.0; Win64; x64) AppleWebKit/537.36 (KHTML, like Gecko) Chrome/130.0.0.0 Safari/537.36","WebKit","Chrome","130.0.0.0","Windows","10.0","https://app.prolific.com/","en-US,en;q=0.9","678ff417c9cc5df1d1206dcf","679147d2997803490f072fae","679150883d46c8570f3bd618","","513","<img id='swapped'   src='G_1.jpg' height='90'> <img id='swapped'   src='G_9.jpg' height='90'> <img    src='G_3.jpg' height='90'> <img    src='G_5.jpg' height='90'> <img src='G_7.jpg' height='90'>","0","Learning example 1",""
"","","","","","html-button-response","138","345325","0.0-118.0","21","1","2025-01-22 20:10:09","6073afb29c8d06c5d8f22ae9f1371ff8","88.151.63.74","Mozilla/5.0 (Windows NT 10.0; Win64; x64) AppleWebKit/537.36 (KHTML, like Gecko) Chrome/130.0.0.0 Safari/537.36","WebKit","Chrome","130.0.0.0","Windows","10.0","https://app.prolific.com/","en-US,en;q=0.9","678ff417c9cc5df1d1206dcf","679147d2997803490f072fae","679150883d46c8570f3bd618","","null","<img    src='G_1.jpg' height='90'> <img    src='G_9.jpg' height='90'> <img    src='G_3.jpg' height='90'> <img    src='G_5.jpg' height='90'> <img src='G_7.jpg' height='90'>","null","Learning example 1",""
"","","","","","html-button-response","139","345743","0.0-119.0","21","1","2025-01-22 20:10:09","6073afb29c8d06c5d8f22ae9f1371ff8","88.151.63.74","Mozilla/5.0 (Windows NT 10.0; Win64; x64) AppleWebKit/537.36 (KHTML, like Gecko) Chrome/130.0.0.0 Safari/537.36","WebKit","Chrome","130.0.0.0","Windows","10.0","https://app.prolific.com/","en-US,en;q=0.9","678ff417c9cc5df1d1206dcf","679147d2997803490f072fae","679150883d46c8570f3bd618","","null","<img    src='G_1.jpg' height='90'> <img    src='G_9.jpg' height='90'> <img    src='G_3.jpg' height='90'> <img id='selected'    src='G_5.jpg' height='90'> <img src='G_7.jpg' height='90'>","null","Learning example 1",""
"","","","","","html-button-response","140","346053","0.0-120.0","21","1","2025-01-22 20:10:09","6073afb29c8d06c5d8f22ae9f1371ff8","88.151.63.74","Mozilla/5.0 (Windows NT 10.0; Win64; x64) AppleWebKit/537.36 (KHTML, like Gecko) Chrome/130.0.0.0 Safari/537.36","WebKit","Chrome","130.0.0.0","Windows","10.0","https://app.prolific.com/","en-US,en;q=0.9","678ff417c9cc5df1d1206dcf","679147d2997803490f072fae","679150883d46c8570f3bd618","","null","<img    src='G_1.jpg' height='90'> <img    src='G_9.jpg' height='90'> <img    src='G_3.jpg' height='90'> <img id='selected'    src='G_5.jpg' height='90'> <img id='selected' src='G_7.jpg' height='90'>","null","Learning example 1",""
"","","","","","html-button-response","141","346361","0.0-121.0","21","1","2025-01-22 20:10:09","6073afb29c8d06c5d8f22ae9f1371ff8","88.151.63.74","Mozilla/5.0 (Windows NT 10.0; Win64; x64) AppleWebKit/537.36 (KHTML, like Gecko) Chrome/130.0.0.0 Safari/537.36","WebKit","Chrome","130.0.0.0","Windows","10.0","https://app.prolific.com/","en-US,en;q=0.9","678ff417c9cc5df1d1206dcf","679147d2997803490f072fae","679150883d46c8570f3bd618","","null","<img    src='G_1.jpg' height='90'> <img    src='G_9.jpg' height='90'> <img    src='G_3.jpg' height='90'> <img id='swapped' src='G_7.jpg' height='90'> <img id='swapped'    src='G_5.jpg' height='90'>","null","Learning example 1",""
"","","","","","html-button-response","142","347018","0.0-122.0-0.0-0.0","21","1","2025-01-22 20:10:09","6073afb29c8d06c5d8f22ae9f1371ff8","88.151.63.74","Mozilla/5.0 (Windows NT 10.0; Win64; x64) AppleWebKit/537.36 (KHTML, like Gecko) Chrome/130.0.0.0 Safari/537.36","WebKit","Chrome","130.0.0.0","Windows","10.0","https://app.prolific.com/","en-US,en;q=0.9","678ff417c9cc5df1d1206dcf","679147d2997803490f072fae","679150883d46c8570f3bd618","","652","<img    src='G_1.jpg' height='90'> <img    src='G_9.jpg' height='90'> <img    src='G_3.jpg' height='90'> <img id='swapped' src='G_7.jpg' height='90'> <img id='swapped'    src='G_5.jpg' height='90'>","3","Learning example 1",""
"","","","","","html-button-response","143","347627","0.0-122.1-0.1-0.1","21","1","2025-01-22 20:10:09","6073afb29c8d06c5d8f22ae9f1371ff8","88.151.63.74","Mozilla/5.0 (Windows NT 10.0; Win64; x64) AppleWebKit/537.36 (KHTML, like Gecko) Chrome/130.0.0.0 Safari/537.36","WebKit","Chrome","130.0.0.0","Windows","10.0","https://app.prolific.com/","en-US,en;q=0.9","678ff417c9cc5df1d1206dcf","679147d2997803490f072fae","679150883d46c8570f3bd618","","602","<img    src='G_1.jpg' height='90'> <img    src='G_9.jpg' height='90'> <img    src='G_3.jpg' height='90'> <img id='swapped' src='G_7.jpg' height='90'> <img id='swapped'    src='G_5.jpg' height='90'>","4","Learning example 1",""
"","","","","","html-button-response","144","347845","0.0-123.0","21","1","2025-01-22 20:10:09","6073afb29c8d06c5d8f22ae9f1371ff8","88.151.63.74","Mozilla/5.0 (Windows NT 10.0; Win64; x64) AppleWebKit/537.36 (KHTML, like Gecko) Chrome/130.0.0.0 Safari/537.36","WebKit","Chrome","130.0.0.0","Windows","10.0","https://app.prolific.com/","en-US,en;q=0.9","678ff417c9cc5df1d1206dcf","679147d2997803490f072fae","679150883d46c8570f3bd618","","null","<img    src='G_1.jpg' height='90'> <img    src='G_9.jpg' height='90'> <img    src='G_3.jpg' height='90'> <img  src='G_7.jpg' height='90'> <img     src='G_5.jpg' height='90'>","null","Learning example 1",""
"","","","","","html-button-response","145","348264","0.0-124.0","21","1","2025-01-22 20:10:09","6073afb29c8d06c5d8f22ae9f1371ff8","88.151.63.74","Mozilla/5.0 (Windows NT 10.0; Win64; x64) AppleWebKit/537.36 (KHTML, like Gecko) Chrome/130.0.0.0 Safari/537.36","WebKit","Chrome","130.0.0.0","Windows","10.0","https://app.prolific.com/","en-US,en;q=0.9","678ff417c9cc5df1d1206dcf","679147d2997803490f072fae","679150883d46c8570f3bd618","","null","<img    src='G_1.jpg' height='90'> <img    src='G_9.jpg' height='90'> <img id='selected'    src='G_3.jpg' height='90'> <img  src='G_7.jpg' height='90'> <img     src='G_5.jpg' height='90'>","null","Learning example 1",""
"","","","","","html-button-response","146","348575","0.0-125.0","21","1","2025-01-22 20:10:09","6073afb29c8d06c5d8f22ae9f1371ff8","88.151.63.74","Mozilla/5.0 (Windows NT 10.0; Win64; x64) AppleWebKit/537.36 (KHTML, like Gecko) Chrome/130.0.0.0 Safari/537.36","WebKit","Chrome","130.0.0.0","Windows","10.0","https://app.prolific.com/","en-US,en;q=0.9","678ff417c9cc5df1d1206dcf","679147d2997803490f072fae","679150883d46c8570f3bd618","","null","<img    src='G_1.jpg' height='90'> <img    src='G_9.jpg' height='90'> <img id='selected'    src='G_3.jpg' height='90'> <img id='selected'  src='G_7.jpg' height='90'> <img     src='G_5.jpg' height='90'>","null","Learning example 1",""
"","","","","","html-button-response","147","348884","0.0-126.0","21","1","2025-01-22 20:10:09","6073afb29c8d06c5d8f22ae9f1371ff8","88.151.63.74","Mozilla/5.0 (Windows NT 10.0; Win64; x64) AppleWebKit/537.36 (KHTML, like Gecko) Chrome/130.0.0.0 Safari/537.36","WebKit","Chrome","130.0.0.0","Windows","10.0","https://app.prolific.com/","en-US,en;q=0.9","678ff417c9cc5df1d1206dcf","679147d2997803490f072fae","679150883d46c8570f3bd618","","null","<img    src='G_1.jpg' height='90'> <img    src='G_9.jpg' height='90'> <img id='swapped'  src='G_7.jpg' height='90'> <img id='swapped'    src='G_3.jpg' height='90'> <img     src='G_5.jpg' height='90'>","null","Learning example 1",""
"","","","","","html-button-response","148","349291","0.0-127.0-0.0-0.0","21","1","2025-01-22 20:10:09","6073afb29c8d06c5d8f22ae9f1371ff8","88.151.63.74","Mozilla/5.0 (Windows NT 10.0; Win64; x64) AppleWebKit/537.36 (KHTML, like Gecko) Chrome/130.0.0.0 Safari/537.36","WebKit","Chrome","130.0.0.0","Windows","10.0","https://app.prolific.com/","en-US,en;q=0.9","678ff417c9cc5df1d1206dcf","679147d2997803490f072fae","679150883d46c8570f3bd618","","399","<img    src='G_1.jpg' height='90'> <img    src='G_9.jpg' height='90'> <img id='swapped'  src='G_7.jpg' height='90'> <img id='swapped'    src='G_3.jpg' height='90'> <img     src='G_5.jpg' height='90'>","3","Learning example 1",""
"","","","","","html-button-response","149","349866","0.0-127.1-0.1-0.1","21","1","2025-01-22 20:10:09","6073afb29c8d06c5d8f22ae9f1371ff8","88.151.63.74","Mozilla/5.0 (Windows NT 10.0; Win64; x64) AppleWebKit/537.36 (KHTML, like Gecko) Chrome/130.0.0.0 Safari/537.36","WebKit","Chrome","130.0.0.0","Windows","10.0","https://app.prolific.com/","en-US,en;q=0.9","678ff417c9cc5df1d1206dcf","679147d2997803490f072fae","679150883d46c8570f3bd618","","570","<img    src='G_1.jpg' height='90'> <img    src='G_9.jpg' height='90'> <img id='swapped'  src='G_7.jpg' height='90'> <img id='swapped'    src='G_3.jpg' height='90'> <img     src='G_5.jpg' height='90'>","2","Learning example 1",""
"","","","","","html-button-response","150","350074","0.0-128.0","21","1","2025-01-22 20:10:09","6073afb29c8d06c5d8f22ae9f1371ff8","88.151.63.74","Mozilla/5.0 (Windows NT 10.0; Win64; x64) AppleWebKit/537.36 (KHTML, like Gecko) Chrome/130.0.0.0 Safari/537.36","WebKit","Chrome","130.0.0.0","Windows","10.0","https://app.prolific.com/","en-US,en;q=0.9","678ff417c9cc5df1d1206dcf","679147d2997803490f072fae","679150883d46c8570f3bd618","","null","<img    src='G_1.jpg' height='90'> <img    src='G_9.jpg' height='90'> <img   src='G_7.jpg' height='90'> <img     src='G_3.jpg' height='90'> <img     src='G_5.jpg' height='90'>","null","Learning example 1",""
"","","","","","html-button-response","151","350480","0.0-129.0","21","1","2025-01-22 20:10:09","6073afb29c8d06c5d8f22ae9f1371ff8","88.151.63.74","Mozilla/5.0 (Windows NT 10.0; Win64; x64) AppleWebKit/537.36 (KHTML, like Gecko) Chrome/130.0.0.0 Safari/537.36","WebKit","Chrome","130.0.0.0","Windows","10.0","https://app.prolific.com/","en-US,en;q=0.9","678ff417c9cc5df1d1206dcf","679147d2997803490f072fae","679150883d46c8570f3bd618","","null","<img    src='G_1.jpg' height='90'> <img id='selected'    src='G_9.jpg' height='90'> <img   src='G_7.jpg' height='90'> <img     src='G_3.jpg' height='90'> <img     src='G_5.jpg' height='90'>","null","Learning example 1",""
"","","","","","html-button-response","152","350786","0.0-130.0","21","1","2025-01-22 20:10:09","6073afb29c8d06c5d8f22ae9f1371ff8","88.151.63.74","Mozilla/5.0 (Windows NT 10.0; Win64; x64) AppleWebKit/537.36 (KHTML, like Gecko) Chrome/130.0.0.0 Safari/537.36","WebKit","Chrome","130.0.0.0","Windows","10.0","https://app.prolific.com/","en-US,en;q=0.9","678ff417c9cc5df1d1206dcf","679147d2997803490f072fae","679150883d46c8570f3bd618","","null","<img    src='G_1.jpg' height='90'> <img id='selected'    src='G_9.jpg' height='90'> <img id='selected'   src='G_7.jpg' height='90'> <img     src='G_3.jpg' height='90'> <img     src='G_5.jpg' height='90'>","null","Learning example 1",""
"","","","","","html-button-response","153","351099","0.0-131.0","21","1","2025-01-22 20:10:09","6073afb29c8d06c5d8f22ae9f1371ff8","88.151.63.74","Mozilla/5.0 (Windows NT 10.0; Win64; x64) AppleWebKit/537.36 (KHTML, like Gecko) Chrome/130.0.0.0 Safari/537.36","WebKit","Chrome","130.0.0.0","Windows","10.0","https://app.prolific.com/","en-US,en;q=0.9","678ff417c9cc5df1d1206dcf","679147d2997803490f072fae","679150883d46c8570f3bd618","","null","<img    src='G_1.jpg' height='90'> <img id='swapped'   src='G_7.jpg' height='90'> <img id='swapped'    src='G_9.jpg' height='90'> <img     src='G_3.jpg' height='90'> <img     src='G_5.jpg' height='90'>","null","Learning example 1",""
"","","","","","html-button-response","154","351667","0.0-132.0-0.0-0.0","21","1","2025-01-22 20:10:09","6073afb29c8d06c5d8f22ae9f1371ff8","88.151.63.74","Mozilla/5.0 (Windows NT 10.0; Win64; x64) AppleWebKit/537.36 (KHTML, like Gecko) Chrome/130.0.0.0 Safari/537.36","WebKit","Chrome","130.0.0.0","Windows","10.0","https://app.prolific.com/","en-US,en;q=0.9","678ff417c9cc5df1d1206dcf","679147d2997803490f072fae","679150883d46c8570f3bd618","","562","<img    src='G_1.jpg' height='90'> <img id='swapped'   src='G_7.jpg' height='90'> <img id='swapped'    src='G_9.jpg' height='90'> <img     src='G_3.jpg' height='90'> <img     src='G_5.jpg' height='90'>","1","Learning example 1",""
