"success","timeout","failed_images","failed_audio","failed_video","trial_type","trial_index","time_elapsed","internal_node_id","run_id","condition","recorded_at","source_code_version","ip","user_agent","device","browser","browser_version","platform","platform_version","referer","accept_language","PROLIFIC_PID","STUDY_ID","SESSION_ID","view_history","rt","stimulus","response","phase","question_order"
"true","false","[]","[]","[]","preload","0","9","0.0-0.0","24","1","2025-01-22 20:16:37","6073afb29c8d06c5d8f22ae9f1371ff8","212.32.102.203","Mozilla/5.0 (Windows NT 10.0; Win64; x64) AppleWebKit/537.36 (KHTML, like Gecko) Chrome/131.0.0.0 Safari/537.36","WebKit","Chrome","131.0.0.0","Windows","10.0","null","en-US,en;q=0.9","678c01b6b2da6239b3f5521c","679147d2997803490f072fae","679150ab22caf6371a926e1e","","","","","",""
"","","","","","instructions","1","4606","0.0-1.0","24","1","2025-01-22 20:16:37","6073afb29c8d06c5d8f22ae9f1371ff8","212.32.102.203","Mozilla/5.0 (Windows NT 10.0; Win64; x64) AppleWebKit/537.36 (KHTML, like Gecko) Chrome/131.0.0.0 Safari/537.36","WebKit","Chrome","131.0.0.0","Windows","10.0","null","en-US,en;q=0.9","678c01b6b2da6239b3f5521c","679147d2997803490f072fae","679150ab22caf6371a926e1e","[{""page_index"":0,""viewing_time"":4595}]","4595","","","",""
"","","","","","html-keyboard-response","2","5108","0.0-2.0","24","1","2025-01-22 20:16:37","6073afb29c8d06c5d8f22ae9f1371ff8","212.32.102.203","Mozilla/5.0 (Windows NT 10.0; Win64; x64) AppleWebKit/537.36 (KHTML, like Gecko) Chrome/131.0.0.0 Safari/537.36","WebKit","Chrome","131.0.0.0","Windows","10.0","null","en-US,en;q=0.9","678c01b6b2da6239b3f5521c","679147d2997803490f072fae","679150ab22caf6371a926e1e","","null","<p> + <p/>","null","",""
"","","","","","instructions","3","72798","0.0-3.0","24","1","2025-01-22 20:16:37","6073afb29c8d06c5d8f22ae9f1371ff8","212.32.102.203","Mozilla/5.0 (Windows NT 10.0; Win64; x64) AppleWebKit/537.36 (KHTML, like Gecko) Chrome/131.0.0.0 Safari/537.36","WebKit","Chrome","131.0.0.0","Windows","10.0","null","en-US,en;q=0.9","678c01b6b2da6239b3f5521c","679147d2997803490f072fae","679150ab22caf6371a926e1e","[{""page_index"":0,""viewing_time"":49414},{""page_index"":1,""viewing_time"":1158},{""page_index"":2,""viewing_time"":7988},{""page_index"":3,""viewing_time"":7044},{""page_index"":4,""viewing_time"":2085}]","67689","","","",""
"","","","","","html-button-response","4","126942","0.0-4.0-0.0-0.0","24","1","2025-01-22 20:16:37","6073afb29c8d06c5d8f22ae9f1371ff8","212.32.102.203","Mozilla/5.0 (Windows NT 10.0; Win64; x64) AppleWebKit/537.36 (KHTML, like Gecko) Chrome/131.0.0.0 Safari/537.36","WebKit","Chrome","131.0.0.0","Windows","10.0","null","en-US,en;q=0.9","678c01b6b2da6239b3f5521c","679147d2997803490f072fae","679150ab22caf6371a926e1e","","54141","","2","Intro Trial",""
"","","","","","html-button-response","5","129734","0.0-4.1-0.1-0.1","24","1","2025-01-22 20:16:37","6073afb29c8d06c5d8f22ae9f1371ff8","212.32.102.203","Mozilla/5.0 (Windows NT 10.0; Win64; x64) AppleWebKit/537.36 (KHTML, like Gecko) Chrome/131.0.0.0 Safari/537.36","WebKit","Chrome","131.0.0.0","Windows","10.0","null","en-US,en;q=0.9","678c01b6b2da6239b3f5521c","679147d2997803490f072fae","679150ab22caf6371a926e1e","","2789","","3","Intro Trial",""
"","","","","","html-button-response","6","133286","0.0-4.2-0.2-0.2","24","1","2025-01-22 20:16:37","6073afb29c8d06c5d8f22ae9f1371ff8","212.32.102.203","Mozilla/5.0 (Windows NT 10.0; Win64; x64) AppleWebKit/537.36 (KHTML, like Gecko) Chrome/131.0.0.0 Safari/537.36","WebKit","Chrome","131.0.0.0","Windows","10.0","null","en-US,en;q=0.9","678c01b6b2da6239b3f5521c","679147d2997803490f072fae","679150ab22caf6371a926e1e","","3550","","2","Intro Trial",""
"","","","","","html-button-response","7","136278","0.0-4.3-0.3-0.3","24","1","2025-01-22 20:16:37","6073afb29c8d06c5d8f22ae9f1371ff8","212.32.102.203","Mozilla/5.0 (Windows NT 10.0; Win64; x64) AppleWebKit/537.36 (KHTML, like Gecko) Chrome/131.0.0.0 Safari/537.36","WebKit","Chrome","131.0.0.0","Windows","10.0","null","en-US,en;q=0.9","678c01b6b2da6239b3f5521c","679147d2997803490f072fae","679150ab22caf6371a926e1e","","2990","","0","Intro Trial",""
"","","","","","html-button-response","8","142718","0.0-4.4-0.4-0.4","24","1","2025-01-22 20:16:37","6073afb29c8d06c5d8f22ae9f1371ff8","212.32.102.203","Mozilla/5.0 (Windows NT 10.0; Win64; x64) AppleWebKit/537.36 (KHTML, like Gecko) Chrome/131.0.0.0 Safari/537.36","WebKit","Chrome","131.0.0.0","Windows","10.0","null","en-US,en;q=0.9","678c01b6b2da6239b3f5521c","679147d2997803490f072fae","679150ab22caf6371a926e1e","","6438","","1","Intro Trial",""
"","","","","","html-button-response","9","144237","0.0-4.5-0.5-0.5","24","1","2025-01-22 20:16:37","6073afb29c8d06c5d8f22ae9f1371ff8","212.32.102.203","Mozilla/5.0 (Windows NT 10.0; Win64; x64) AppleWebKit/537.36 (KHTML, like Gecko) Chrome/131.0.0.0 Safari/537.36","WebKit","Chrome","131.0.0.0","Windows","10.0","null","en-US,en;q=0.9","678c01b6b2da6239b3f5521c","679147d2997803490f072fae","679150ab22caf6371a926e1e","","1517","","2","Intro Trial",""
"","","","","","html-button-response","10","145414","0.0-4.6-0.6-0.6","24","1","2025-01-22 20:16:37","6073afb29c8d06c5d8f22ae9f1371ff8","212.32.102.203","Mozilla/5.0 (Windows NT 10.0; Win64; x64) AppleWebKit/537.36 (KHTML, like Gecko) Chrome/131.0.0.0 Safari/537.36","WebKit","Chrome","131.0.0.0","Windows","10.0","null","en-US,en;q=0.9","678c01b6b2da6239b3f5521c","679147d2997803490f072fae","679150ab22caf6371a926e1e","","1174","","1","Intro Trial",""
"","","","","","html-button-response","11","146222","0.0-4.7-0.7-0.7","24","1","2025-01-22 20:16:37","6073afb29c8d06c5d8f22ae9f1371ff8","212.32.102.203","Mozilla/5.0 (Windows NT 10.0; Win64; x64) AppleWebKit/537.36 (KHTML, like Gecko) Chrome/131.0.0.0 Safari/537.36","WebKit","Chrome","131.0.0.0","Windows","10.0","null","en-US,en;q=0.9","678c01b6b2da6239b3f5521c","679147d2997803490f072fae","679150ab22caf6371a926e1e","","806","","2","Intro Trial",""
"","","","","","html-button-response","12","149469","0.0-4.8-0.8-0.8","24","1","2025-01-22 20:16:37","6073afb29c8d06c5d8f22ae9f1371ff8","212.32.102.203","Mozilla/5.0 (Windows NT 10.0; Win64; x64) AppleWebKit/537.36 (KHTML, like Gecko) Chrome/131.0.0.0 Safari/537.36","WebKit","Chrome","131.0.0.0","Windows","10.0","null","en-US,en;q=0.9","678c01b6b2da6239b3f5521c","679147d2997803490f072fae","679150ab22caf6371a926e1e","","3245","","4","Intro Trial",""
"","","","","","html-button-response","13","150485","0.0-4.9-0.9-0.9","24","1","2025-01-22 20:16:37","6073afb29c8d06c5d8f22ae9f1371ff8","212.32.102.203","Mozilla/5.0 (Windows NT 10.0; Win64; x64) AppleWebKit/537.36 (KHTML, like Gecko) Chrome/131.0.0.0 Safari/537.36","WebKit","Chrome","131.0.0.0","Windows","10.0","null","en-US,en;q=0.9","678c01b6b2da6239b3f5521c","679147d2997803490f072fae","679150ab22caf6371a926e1e","","1014","","0","Intro Trial",""
"","","","","","html-button-response","14","152733","0.0-4.10-0.10-0.10","24","1","2025-01-22 20:16:37","6073afb29c8d06c5d8f22ae9f1371ff8","212.32.102.203","Mozilla/5.0 (Windows NT 10.0; Win64; x64) AppleWebKit/537.36 (KHTML, like Gecko) Chrome/131.0.0.0 Safari/537.36","WebKit","Chrome","131.0.0.0","Windows","10.0","null","en-US,en;q=0.9","678c01b6b2da6239b3f5521c","679147d2997803490f072fae","679150ab22caf6371a926e1e","","2246","","0","Intro Trial",""
"","","","","","html-button-response","15","154701","0.0-4.11-0.11-0.11","24","1","2025-01-22 20:16:37","6073afb29c8d06c5d8f22ae9f1371ff8","212.32.102.203","Mozilla/5.0 (Windows NT 10.0; Win64; x64) AppleWebKit/537.36 (KHTML, like Gecko) Chrome/131.0.0.0 Safari/537.36","WebKit","Chrome","131.0.0.0","Windows","10.0","null","en-US,en;q=0.9","678c01b6b2da6239b3f5521c","679147d2997803490f072fae","679150ab22caf6371a926e1e","","1967","","2","Intro Trial",""
"","","","","","html-button-response","16","155749","0.0-4.12-0.12-0.12","24","1","2025-01-22 20:16:37","6073afb29c8d06c5d8f22ae9f1371ff8","212.32.102.203","Mozilla/5.0 (Windows NT 10.0; Win64; x64) AppleWebKit/537.36 (KHTML, like Gecko) Chrome/131.0.0.0 Safari/537.36","WebKit","Chrome","131.0.0.0","Windows","10.0","null","en-US,en;q=0.9","678c01b6b2da6239b3f5521c","679147d2997803490f072fae","679150ab22caf6371a926e1e","","1046","","1","Intro Trial",""
"","","","","","html-button-response","17","156326","0.0-4.13-0.13-0.13","24","1","2025-01-22 20:16:37","6073afb29c8d06c5d8f22ae9f1371ff8","212.32.102.203","Mozilla/5.0 (Windows NT 10.0; Win64; x64) AppleWebKit/537.36 (KHTML, like Gecko) Chrome/131.0.0.0 Safari/537.36","WebKit","Chrome","131.0.0.0","Windows","10.0","null","en-US,en;q=0.9","678c01b6b2da6239b3f5521c","679147d2997803490f072fae","679150ab22caf6371a926e1e","","574","","0","Intro Trial",""
"","","","","","html-button-response","18","157113","0.0-4.14-0.14-0.14","24","1","2025-01-22 20:16:37","6073afb29c8d06c5d8f22ae9f1371ff8","212.32.102.203","Mozilla/5.0 (Windows NT 10.0; Win64; x64) AppleWebKit/537.36 (KHTML, like Gecko) Chrome/131.0.0.0 Safari/537.36","WebKit","Chrome","131.0.0.0","Windows","10.0","null","en-US,en;q=0.9","678c01b6b2da6239b3f5521c","679147d2997803490f072fae","679150ab22caf6371a926e1e","","785","","0","Intro Trial",""
"","","","","","html-button-response","19","157597","0.0-4.15-0.15-0.15","24","1","2025-01-22 20:16:37","6073afb29c8d06c5d8f22ae9f1371ff8","212.32.102.203","Mozilla/5.0 (Windows NT 10.0; Win64; x64) AppleWebKit/537.36 (KHTML, like Gecko) Chrome/131.0.0.0 Safari/537.36","WebKit","Chrome","131.0.0.0","Windows","10.0","null","en-US,en;q=0.9","678c01b6b2da6239b3f5521c","679147d2997803490f072fae","679150ab22caf6371a926e1e","","482","","1","Intro Trial",""
"","","","","","html-button-response","20","158150","0.0-4.16-0.16-0.16","24","1","2025-01-22 20:16:37","6073afb29c8d06c5d8f22ae9f1371ff8","212.32.102.203","Mozilla/5.0 (Windows NT 10.0; Win64; x64) AppleWebKit/537.36 (KHTML, like Gecko) Chrome/131.0.0.0 Safari/537.36","WebKit","Chrome","131.0.0.0","Windows","10.0","null","en-US,en;q=0.9","678c01b6b2da6239b3f5521c","679147d2997803490f072fae","679150ab22caf6371a926e1e","","550","","0","Intro Trial",""
"","","","","","html-button-response","21","158942","0.0-4.17-0.17-0.17","24","1","2025-01-22 20:16:37","6073afb29c8d06c5d8f22ae9f1371ff8","212.32.102.203","Mozilla/5.0 (Windows NT 10.0; Win64; x64) AppleWebKit/537.36 (KHTML, like Gecko) Chrome/131.0.0.0 Safari/537.36","WebKit","Chrome","131.0.0.0","Windows","10.0","null","en-US,en;q=0.9","678c01b6b2da6239b3f5521c","679147d2997803490f072fae","679150ab22caf6371a926e1e","","790","","3","Intro Trial",""
"","","","","","html-button-response","22","159733","0.0-4.18-0.18-0.18","24","1","2025-01-22 20:16:37","6073afb29c8d06c5d8f22ae9f1371ff8","212.32.102.203","Mozilla/5.0 (Windows NT 10.0; Win64; x64) AppleWebKit/537.36 (KHTML, like Gecko) Chrome/131.0.0.0 Safari/537.36","WebKit","Chrome","131.0.0.0","Windows","10.0","null","en-US,en;q=0.9","678c01b6b2da6239b3f5521c","679147d2997803490f072fae","679150ab22caf6371a926e1e","","789","","0","Intro Trial",""
"","","","","","html-button-response","23","160798","0.0-4.19-0.19-0.19","24","1","2025-01-22 20:16:37","6073afb29c8d06c5d8f22ae9f1371ff8","212.32.102.203","Mozilla/5.0 (Windows NT 10.0; Win64; x64) AppleWebKit/537.36 (KHTML, like Gecko) Chrome/131.0.0.0 Safari/537.36","WebKit","Chrome","131.0.0.0","Windows","10.0","null","en-US,en;q=0.9","678c01b6b2da6239b3f5521c","679147d2997803490f072fae","679150ab22caf6371a926e1e","","1062","","3","Intro Trial",""
"","","","","","html-button-response","24","163509","0.0-4.20-0.20-0.20","24","1","2025-01-22 20:16:37","6073afb29c8d06c5d8f22ae9f1371ff8","212.32.102.203","Mozilla/5.0 (Windows NT 10.0; Win64; x64) AppleWebKit/537.36 (KHTML, like Gecko) Chrome/131.0.0.0 Safari/537.36","WebKit","Chrome","131.0.0.0","Windows","10.0","null","en-US,en;q=0.9","678c01b6b2da6239b3f5521c","679147d2997803490f072fae","679150ab22caf6371a926e1e","","2709","","2","Intro Trial",""
"","","","","","html-button-response","25","163981","0.0-4.21-0.21-0.21","24","1","2025-01-22 20:16:37","6073afb29c8d06c5d8f22ae9f1371ff8","212.32.102.203","Mozilla/5.0 (Windows NT 10.0; Win64; x64) AppleWebKit/537.36 (KHTML, like Gecko) Chrome/131.0.0.0 Safari/537.36","WebKit","Chrome","131.0.0.0","Windows","10.0","null","en-US,en;q=0.9","678c01b6b2da6239b3f5521c","679147d2997803490f072fae","679150ab22caf6371a926e1e","","470","","1","Intro Trial",""
"","","","","","html-button-response","26","164709","0.0-4.22-0.22-0.22","24","1","2025-01-22 20:16:37","6073afb29c8d06c5d8f22ae9f1371ff8","212.32.102.203","Mozilla/5.0 (Windows NT 10.0; Win64; x64) AppleWebKit/537.36 (KHTML, like Gecko) Chrome/131.0.0.0 Safari/537.36","WebKit","Chrome","131.0.0.0","Windows","10.0","null","en-US,en;q=0.9","678c01b6b2da6239b3f5521c","679147d2997803490f072fae","679150ab22caf6371a926e1e","","725","","1","Intro Trial",""
"","","","","","html-button-response","27","165278","0.0-4.23-0.23-0.23","24","1","2025-01-22 20:16:37","6073afb29c8d06c5d8f22ae9f1371ff8","212.32.102.203","Mozilla/5.0 (Windows NT 10.0; Win64; x64) AppleWebKit/537.36 (KHTML, like Gecko) Chrome/131.0.0.0 Safari/537.36","WebKit","Chrome","131.0.0.0","Windows","10.0","null","en-US,en;q=0.9","678c01b6b2da6239b3f5521c","679147d2997803490f072fae","679150ab22caf6371a926e1e","","566","","2","Intro Trial",""
"","","","","","html-button-response","28","166829","0.0-4.24-0.24-0.24","24","1","2025-01-22 20:16:37","6073afb29c8d06c5d8f22ae9f1371ff8","212.32.102.203","Mozilla/5.0 (Windows NT 10.0; Win64; x64) AppleWebKit/537.36 (KHTML, like Gecko) Chrome/131.0.0.0 Safari/537.36","WebKit","Chrome","131.0.0.0","Windows","10.0","null","en-US,en;q=0.9","678c01b6b2da6239b3f5521c","679147d2997803490f072fae","679150ab22caf6371a926e1e","","1549","","3","Intro Trial",""
"","","","","","html-button-response","29","169853","0.0-4.25-0.25-0.25","24","1","2025-01-22 20:16:37","6073afb29c8d06c5d8f22ae9f1371ff8","212.32.102.203","Mozilla/5.0 (Windows NT 10.0; Win64; x64) AppleWebKit/537.36 (KHTML, like Gecko) Chrome/131.0.0.0 Safari/537.36","WebKit","Chrome","131.0.0.0","Windows","10.0","null","en-US,en;q=0.9","678c01b6b2da6239b3f5521c","679147d2997803490f072fae","679150ab22caf6371a926e1e","","3022","","4","Intro Trial",""
"","","","","","html-button-response","30","173342","0.0-4.26-0.26-0.26","24","1","2025-01-22 20:16:37","6073afb29c8d06c5d8f22ae9f1371ff8","212.32.102.203","Mozilla/5.0 (Windows NT 10.0; Win64; x64) AppleWebKit/537.36 (KHTML, like Gecko) Chrome/131.0.0.0 Safari/537.36","WebKit","Chrome","131.0.0.0","Windows","10.0","null","en-US,en;q=0.9","678c01b6b2da6239b3f5521c","679147d2997803490f072fae","679150ab22caf6371a926e1e","","3486","","3","Intro Trial",""
"","","","","","html-button-response","31","174205","0.0-4.27-0.27-0.27","24","1","2025-01-22 20:16:37","6073afb29c8d06c5d8f22ae9f1371ff8","212.32.102.203","Mozilla/5.0 (Windows NT 10.0; Win64; x64) AppleWebKit/537.36 (KHTML, like Gecko) Chrome/131.0.0.0 Safari/537.36","WebKit","Chrome","131.0.0.0","Windows","10.0","null","en-US,en;q=0.9","678c01b6b2da6239b3f5521c","679147d2997803490f072fae","679150ab22caf6371a926e1e","","861","","1","Intro Trial",""
"","","","","","html-button-response","32","175094","0.0-4.28-0.28-0.28","24","1","2025-01-22 20:16:37","6073afb29c8d06c5d8f22ae9f1371ff8","212.32.102.203","Mozilla/5.0 (Windows NT 10.0; Win64; x64) AppleWebKit/537.36 (KHTML, like Gecko) Chrome/131.0.0.0 Safari/537.36","WebKit","Chrome","131.0.0.0","Windows","10.0","null","en-US,en;q=0.9","678c01b6b2da6239b3f5521c","679147d2997803490f072fae","679150ab22caf6371a926e1e","","886","","3","Intro Trial",""
"","","","","","html-button-response","33","175853","0.0-4.29-0.29-0.29","24","1","2025-01-22 20:16:37","6073afb29c8d06c5d8f22ae9f1371ff8","212.32.102.203","Mozilla/5.0 (Windows NT 10.0; Win64; x64) AppleWebKit/537.36 (KHTML, like Gecko) Chrome/131.0.0.0 Safari/537.36","WebKit","Chrome","131.0.0.0","Windows","10.0","null","en-US,en;q=0.9","678c01b6b2da6239b3f5521c","679147d2997803490f072fae","679150ab22caf6371a926e1e","","757","","0","Intro Trial",""
"","","","","","html-button-response","34","177437","0.0-4.30-0.30-0.30","24","1","2025-01-22 20:16:37","6073afb29c8d06c5d8f22ae9f1371ff8","212.32.102.203","Mozilla/5.0 (Windows NT 10.0; Win64; x64) AppleWebKit/537.36 (KHTML, like Gecko) Chrome/131.0.0.0 Safari/537.36","WebKit","Chrome","131.0.0.0","Windows","10.0","null","en-US,en;q=0.9","678c01b6b2da6239b3f5521c","679147d2997803490f072fae","679150ab22caf6371a926e1e","","1581","","1","Intro Trial",""
"","","","","","html-button-response","35","177873","0.0-4.31-0.31-0.31","24","1","2025-01-22 20:16:37","6073afb29c8d06c5d8f22ae9f1371ff8","212.32.102.203","Mozilla/5.0 (Windows NT 10.0; Win64; x64) AppleWebKit/537.36 (KHTML, like Gecko) Chrome/131.0.0.0 Safari/537.36","WebKit","Chrome","131.0.0.0","Windows","10.0","null","en-US,en;q=0.9","678c01b6b2da6239b3f5521c","679147d2997803490f072fae","679150ab22caf6371a926e1e","","433","","2","Intro Trial",""
"","","","","","html-button-response","36","181281","0.0-4.32-0.32-0.32","24","1","2025-01-22 20:16:37","6073afb29c8d06c5d8f22ae9f1371ff8","212.32.102.203","Mozilla/5.0 (Windows NT 10.0; Win64; x64) AppleWebKit/537.36 (KHTML, like Gecko) Chrome/131.0.0.0 Safari/537.36","WebKit","Chrome","131.0.0.0","Windows","10.0","null","en-US,en;q=0.9","678c01b6b2da6239b3f5521c","679147d2997803490f072fae","679150ab22caf6371a926e1e","","3406","","3","Intro Trial",""
"","","","","","html-button-response","37","184389","0.0-4.33-0.33-0.33","24","1","2025-01-22 20:16:37","6073afb29c8d06c5d8f22ae9f1371ff8","212.32.102.203","Mozilla/5.0 (Windows NT 10.0; Win64; x64) AppleWebKit/537.36 (KHTML, like Gecko) Chrome/131.0.0.0 Safari/537.36","WebKit","Chrome","131.0.0.0","Windows","10.0","null","en-US,en;q=0.9","678c01b6b2da6239b3f5521c","679147d2997803490f072fae","679150ab22caf6371a926e1e","","3105","","2","Intro Trial",""
"","","","","","html-button-response","38","186383","0.0-4.34-0.34-0.34","24","1","2025-01-22 20:16:37","6073afb29c8d06c5d8f22ae9f1371ff8","212.32.102.203","Mozilla/5.0 (Windows NT 10.0; Win64; x64) AppleWebKit/537.36 (KHTML, like Gecko) Chrome/131.0.0.0 Safari/537.36","WebKit","Chrome","131.0.0.0","Windows","10.0","null","en-US,en;q=0.9","678c01b6b2da6239b3f5521c","679147d2997803490f072fae","679150ab22caf6371a926e1e","","1991","","1","Intro Trial",""
"","","","","","html-button-response","39","188005","0.0-4.35-0.35-0.35","24","1","2025-01-22 20:16:37","6073afb29c8d06c5d8f22ae9f1371ff8","212.32.102.203","Mozilla/5.0 (Windows NT 10.0; Win64; x64) AppleWebKit/537.36 (KHTML, like Gecko) Chrome/131.0.0.0 Safari/537.36","WebKit","Chrome","131.0.0.0","Windows","10.0","null","en-US,en;q=0.9","678c01b6b2da6239b3f5521c","679147d2997803490f072fae","679150ab22caf6371a926e1e","","1620","","1","Intro Trial",""
"","","","","","html-button-response","40","189030","0.0-4.36-0.36-0.36","24","1","2025-01-22 20:16:37","6073afb29c8d06c5d8f22ae9f1371ff8","212.32.102.203","Mozilla/5.0 (Windows NT 10.0; Win64; x64) AppleWebKit/537.36 (KHTML, like Gecko) Chrome/131.0.0.0 Safari/537.36","WebKit","Chrome","131.0.0.0","Windows","10.0","null","en-US,en;q=0.9","678c01b6b2da6239b3f5521c","679147d2997803490f072fae","679150ab22caf6371a926e1e","","1022","","1","Intro Trial",""
"","","","","","html-button-response","41","189718","0.0-4.37-0.37-0.37","24","1","2025-01-22 20:16:37","6073afb29c8d06c5d8f22ae9f1371ff8","212.32.102.203","Mozilla/5.0 (Windows NT 10.0; Win64; x64) AppleWebKit/537.36 (KHTML, like Gecko) Chrome/131.0.0.0 Safari/537.36","WebKit","Chrome","131.0.0.0","Windows","10.0","null","en-US,en;q=0.9","678c01b6b2da6239b3f5521c","679147d2997803490f072fae","679150ab22caf6371a926e1e","","686","","2","Intro Trial",""
"","","","","","html-button-response","42","190613","0.0-4.38-0.38-0.38","24","1","2025-01-22 20:16:37","6073afb29c8d06c5d8f22ae9f1371ff8","212.32.102.203","Mozilla/5.0 (Windows NT 10.0; Win64; x64) AppleWebKit/537.36 (KHTML, like Gecko) Chrome/131.0.0.0 Safari/537.36","WebKit","Chrome","131.0.0.0","Windows","10.0","null","en-US,en;q=0.9","678c01b6b2da6239b3f5521c","679147d2997803490f072fae","679150ab22caf6371a926e1e","","892","","2","Intro Trial",""
"","","","","","html-button-response","43","193298","0.0-4.39-0.39-0.39","24","1","2025-01-22 20:16:37","6073afb29c8d06c5d8f22ae9f1371ff8","212.32.102.203","Mozilla/5.0 (Windows NT 10.0; Win64; x64) AppleWebKit/537.36 (KHTML, like Gecko) Chrome/131.0.0.0 Safari/537.36","WebKit","Chrome","131.0.0.0","Windows","10.0","null","en-US,en;q=0.9","678c01b6b2da6239b3f5521c","679147d2997803490f072fae","679150ab22caf6371a926e1e","","2683","","1","Intro Trial",""
"","","","","","html-button-response","44","194342","0.0-4.40-0.40-0.40","24","1","2025-01-22 20:16:37","6073afb29c8d06c5d8f22ae9f1371ff8","212.32.102.203","Mozilla/5.0 (Windows NT 10.0; Win64; x64) AppleWebKit/537.36 (KHTML, like Gecko) Chrome/131.0.0.0 Safari/537.36","WebKit","Chrome","131.0.0.0","Windows","10.0","null","en-US,en;q=0.9","678c01b6b2da6239b3f5521c","679147d2997803490f072fae","679150ab22caf6371a926e1e","","1042","","1","Intro Trial",""
"","","","","","html-button-response","45","197405","0.0-4.41-0.41-0.41","24","1","2025-01-22 20:16:37","6073afb29c8d06c5d8f22ae9f1371ff8","212.32.102.203","Mozilla/5.0 (Windows NT 10.0; Win64; x64) AppleWebKit/537.36 (KHTML, like Gecko) Chrome/131.0.0.0 Safari/537.36","WebKit","Chrome","131.0.0.0","Windows","10.0","null","en-US,en;q=0.9","678c01b6b2da6239b3f5521c","679147d2997803490f072fae","679150ab22caf6371a926e1e","","3061","","2","Intro Trial",""
"","","","","","html-button-response","46","198262","0.0-4.42-0.42-0.42","24","1","2025-01-22 20:16:37","6073afb29c8d06c5d8f22ae9f1371ff8","212.32.102.203","Mozilla/5.0 (Windows NT 10.0; Win64; x64) AppleWebKit/537.36 (KHTML, like Gecko) Chrome/131.0.0.0 Safari/537.36","WebKit","Chrome","131.0.0.0","Windows","10.0","null","en-US,en;q=0.9","678c01b6b2da6239b3f5521c","679147d2997803490f072fae","679150ab22caf6371a926e1e","","855","","2","Intro Trial",""
"","","","","","html-button-response","47","201238","0.0-4.43-0.43-0.43","24","1","2025-01-22 20:16:37","6073afb29c8d06c5d8f22ae9f1371ff8","212.32.102.203","Mozilla/5.0 (Windows NT 10.0; Win64; x64) AppleWebKit/537.36 (KHTML, like Gecko) Chrome/131.0.0.0 Safari/537.36","WebKit","Chrome","131.0.0.0","Windows","10.0","null","en-US,en;q=0.9","678c01b6b2da6239b3f5521c","679147d2997803490f072fae","679150ab22caf6371a926e1e","","2973","","1","Intro Trial",""
"","","","","","html-button-response","48","202502","0.0-4.44-0.44-0.44","24","1","2025-01-22 20:16:37","6073afb29c8d06c5d8f22ae9f1371ff8","212.32.102.203","Mozilla/5.0 (Windows NT 10.0; Win64; x64) AppleWebKit/537.36 (KHTML, like Gecko) Chrome/131.0.0.0 Safari/537.36","WebKit","Chrome","131.0.0.0","Windows","10.0","null","en-US,en;q=0.9","678c01b6b2da6239b3f5521c","679147d2997803490f072fae","679150ab22caf6371a926e1e","","1262","","1","Intro Trial",""
"","","","","","html-button-response","49","204033","0.0-4.45-0.45-0.45","24","1","2025-01-22 20:16:37","6073afb29c8d06c5d8f22ae9f1371ff8","212.32.102.203","Mozilla/5.0 (Windows NT 10.0; Win64; x64) AppleWebKit/537.36 (KHTML, like Gecko) Chrome/131.0.0.0 Safari/537.36","WebKit","Chrome","131.0.0.0","Windows","10.0","null","en-US,en;q=0.9","678c01b6b2da6239b3f5521c","679147d2997803490f072fae","679150ab22caf6371a926e1e","","1529","","2","Intro Trial",""
"","","","","","html-button-response","50","205422","0.0-4.46-0.46-0.46","24","1","2025-01-22 20:16:37","6073afb29c8d06c5d8f22ae9f1371ff8","212.32.102.203","Mozilla/5.0 (Windows NT 10.0; Win64; x64) AppleWebKit/537.36 (KHTML, like Gecko) Chrome/131.0.0.0 Safari/537.36","WebKit","Chrome","131.0.0.0","Windows","10.0","null","en-US,en;q=0.9","678c01b6b2da6239b3f5521c","679147d2997803490f072fae","679150ab22caf6371a926e1e","","1385","","2","Intro Trial",""
"","","","","","html-button-response","51","210102","0.0-4.47-0.47-0.47","24","1","2025-01-22 20:16:37","6073afb29c8d06c5d8f22ae9f1371ff8","212.32.102.203","Mozilla/5.0 (Windows NT 10.0; Win64; x64) AppleWebKit/537.36 (KHTML, like Gecko) Chrome/131.0.0.0 Safari/537.36","WebKit","Chrome","131.0.0.0","Windows","10.0","null","en-US,en;q=0.9","678c01b6b2da6239b3f5521c","679147d2997803490f072fae","679150ab22caf6371a926e1e","","4677","","0","Intro Trial",""
"","","","","","html-button-response","52","222538","0.0-4.48-0.48-0.48","24","1","2025-01-22 20:16:37","6073afb29c8d06c5d8f22ae9f1371ff8","212.32.102.203","Mozilla/5.0 (Windows NT 10.0; Win64; x64) AppleWebKit/537.36 (KHTML, like Gecko) Chrome/131.0.0.0 Safari/537.36","WebKit","Chrome","131.0.0.0","Windows","10.0","null","en-US,en;q=0.9","678c01b6b2da6239b3f5521c","679147d2997803490f072fae","679150ab22caf6371a926e1e","","12432","","3","Intro Trial",""
"","","","","","html-button-response","53","225601","0.0-4.49-0.49-0.49","24","1","2025-01-22 20:16:37","6073afb29c8d06c5d8f22ae9f1371ff8","212.32.102.203","Mozilla/5.0 (Windows NT 10.0; Win64; x64) AppleWebKit/537.36 (KHTML, like Gecko) Chrome/131.0.0.0 Safari/537.36","WebKit","Chrome","131.0.0.0","Windows","10.0","null","en-US,en;q=0.9","678c01b6b2da6239b3f5521c","679147d2997803490f072fae","679150ab22caf6371a926e1e","","3061","","1","Intro Trial",""
"","","","","","html-button-response","54","227953","0.0-4.50-0.50-0.50","24","1","2025-01-22 20:16:37","6073afb29c8d06c5d8f22ae9f1371ff8","212.32.102.203","Mozilla/5.0 (Windows NT 10.0; Win64; x64) AppleWebKit/537.36 (KHTML, like Gecko) Chrome/131.0.0.0 Safari/537.36","WebKit","Chrome","131.0.0.0","Windows","10.0","null","en-US,en;q=0.9","678c01b6b2da6239b3f5521c","679147d2997803490f072fae","679150ab22caf6371a926e1e","","2349","","3","Intro Trial",""
"","","","","","html-button-response","55","230642","0.0-4.51-0.51-0.51","24","1","2025-01-22 20:16:37","6073afb29c8d06c5d8f22ae9f1371ff8","212.32.102.203","Mozilla/5.0 (Windows NT 10.0; Win64; x64) AppleWebKit/537.36 (KHTML, like Gecko) Chrome/131.0.0.0 Safari/537.36","WebKit","Chrome","131.0.0.0","Windows","10.0","null","en-US,en;q=0.9","678c01b6b2da6239b3f5521c","679147d2997803490f072fae","679150ab22caf6371a926e1e","","2685","","2","Intro Trial",""
"","","","","","html-button-response","56","236457","0.0-4.52-0.52-0.52","24","1","2025-01-22 20:16:37","6073afb29c8d06c5d8f22ae9f1371ff8","212.32.102.203","Mozilla/5.0 (Windows NT 10.0; Win64; x64) AppleWebKit/537.36 (KHTML, like Gecko) Chrome/131.0.0.0 Safari/537.36","WebKit","Chrome","131.0.0.0","Windows","10.0","null","en-US,en;q=0.9","678c01b6b2da6239b3f5521c","679147d2997803490f072fae","679150ab22caf6371a926e1e","","5813","","3","Intro Trial",""
"","","","","","html-button-response","57","237337","0.0-4.53-0.53-0.53","24","1","2025-01-22 20:16:37","6073afb29c8d06c5d8f22ae9f1371ff8","212.32.102.203","Mozilla/5.0 (Windows NT 10.0; Win64; x64) AppleWebKit/537.36 (KHTML, like Gecko) Chrome/131.0.0.0 Safari/537.36","WebKit","Chrome","131.0.0.0","Windows","10.0","null","en-US,en;q=0.9","678c01b6b2da6239b3f5521c","679147d2997803490f072fae","679150ab22caf6371a926e1e","","878","","4","Intro Trial",""
"","","","","","html-button-response","58","240457","0.0-4.54-0.54-0.54","24","1","2025-01-22 20:16:37","6073afb29c8d06c5d8f22ae9f1371ff8","212.32.102.203","Mozilla/5.0 (Windows NT 10.0; Win64; x64) AppleWebKit/537.36 (KHTML, like Gecko) Chrome/131.0.0.0 Safari/537.36","WebKit","Chrome","131.0.0.0","Windows","10.0","null","en-US,en;q=0.9","678c01b6b2da6239b3f5521c","679147d2997803490f072fae","679150ab22caf6371a926e1e","","3117","","3","Intro Trial",""
"","","","","","html-button-response","59","241354","0.0-4.55-0.55-0.55","24","1","2025-01-22 20:16:37","6073afb29c8d06c5d8f22ae9f1371ff8","212.32.102.203","Mozilla/5.0 (Windows NT 10.0; Win64; x64) AppleWebKit/537.36 (KHTML, like Gecko) Chrome/131.0.0.0 Safari/537.36","WebKit","Chrome","131.0.0.0","Windows","10.0","null","en-US,en;q=0.9","678c01b6b2da6239b3f5521c","679147d2997803490f072fae","679150ab22caf6371a926e1e","","894","","1","Intro Trial",""
"","","","","","html-button-response","60","243097","0.0-4.56-0.56-0.56","24","1","2025-01-22 20:16:37","6073afb29c8d06c5d8f22ae9f1371ff8","212.32.102.203","Mozilla/5.0 (Windows NT 10.0; Win64; x64) AppleWebKit/537.36 (KHTML, like Gecko) Chrome/131.0.0.0 Safari/537.36","WebKit","Chrome","131.0.0.0","Windows","10.0","null","en-US,en;q=0.9","678c01b6b2da6239b3f5521c","679147d2997803490f072fae","679150ab22caf6371a926e1e","","1740","","3","Intro Trial",""
"","","","","","html-button-response","61","245225","0.0-4.57-0.57-0.57","24","1","2025-01-22 20:16:37","6073afb29c8d06c5d8f22ae9f1371ff8","212.32.102.203","Mozilla/5.0 (Windows NT 10.0; Win64; x64) AppleWebKit/537.36 (KHTML, like Gecko) Chrome/131.0.0.0 Safari/537.36","WebKit","Chrome","131.0.0.0","Windows","10.0","null","en-US,en;q=0.9","678c01b6b2da6239b3f5521c","679147d2997803490f072fae","679150ab22caf6371a926e1e","","2125","","1","Intro Trial",""
"","","","","","html-button-response","62","247178","0.0-4.58-0.58-0.58","24","1","2025-01-22 20:16:37","6073afb29c8d06c5d8f22ae9f1371ff8","212.32.102.203","Mozilla/5.0 (Windows NT 10.0; Win64; x64) AppleWebKit/537.36 (KHTML, like Gecko) Chrome/131.0.0.0 Safari/537.36","WebKit","Chrome","131.0.0.0","Windows","10.0","null","en-US,en;q=0.9","678c01b6b2da6239b3f5521c","679147d2997803490f072fae","679150ab22caf6371a926e1e","","1950","","4","Intro Trial",""
"","","","","","html-button-response","63","247809","0.0-4.59-0.59-0.59","24","1","2025-01-22 20:16:37","6073afb29c8d06c5d8f22ae9f1371ff8","212.32.102.203","Mozilla/5.0 (Windows NT 10.0; Win64; x64) AppleWebKit/537.36 (KHTML, like Gecko) Chrome/131.0.0.0 Safari/537.36","WebKit","Chrome","131.0.0.0","Windows","10.0","null","en-US,en;q=0.9","678c01b6b2da6239b3f5521c","679147d2997803490f072fae","679150ab22caf6371a926e1e","","629","","3","Intro Trial",""
"","","","","","html-button-response","64","249545","0.0-4.60-0.60-0.60","24","1","2025-01-22 20:16:37","6073afb29c8d06c5d8f22ae9f1371ff8","212.32.102.203","Mozilla/5.0 (Windows NT 10.0; Win64; x64) AppleWebKit/537.36 (KHTML, like Gecko) Chrome/131.0.0.0 Safari/537.36","WebKit","Chrome","131.0.0.0","Windows","10.0","null","en-US,en;q=0.9","678c01b6b2da6239b3f5521c","679147d2997803490f072fae","679150ab22caf6371a926e1e","","1734","","0","Intro Trial",""
"","","","","","html-button-response","65","250402","0.0-4.61-0.61-0.61","24","1","2025-01-22 20:16:37","6073afb29c8d06c5d8f22ae9f1371ff8","212.32.102.203","Mozilla/5.0 (Windows NT 10.0; Win64; x64) AppleWebKit/537.36 (KHTML, like Gecko) Chrome/131.0.0.0 Safari/537.36","WebKit","Chrome","131.0.0.0","Windows","10.0","null","en-US,en;q=0.9","678c01b6b2da6239b3f5521c","679147d2997803490f072fae","679150ab22caf6371a926e1e","","854","","2","Intro Trial",""
"","","","","","html-button-response","66","250993","0.0-4.62-0.62-0.62","24","1","2025-01-22 20:16:37","6073afb29c8d06c5d8f22ae9f1371ff8","212.32.102.203","Mozilla/5.0 (Windows NT 10.0; Win64; x64) AppleWebKit/537.36 (KHTML, like Gecko) Chrome/131.0.0.0 Safari/537.36","WebKit","Chrome","131.0.0.0","Windows","10.0","null","en-US,en;q=0.9","678c01b6b2da6239b3f5521c","679147d2997803490f072fae","679150ab22caf6371a926e1e","","589","","0","Intro Trial",""
"","","","","","html-button-response","67","260513","0.0-4.63-0.63-0.63","24","1","2025-01-22 20:16:37","6073afb29c8d06c5d8f22ae9f1371ff8","212.32.102.203","Mozilla/5.0 (Windows NT 10.0; Win64; x64) AppleWebKit/537.36 (KHTML, like Gecko) Chrome/131.0.0.0 Safari/537.36","WebKit","Chrome","131.0.0.0","Windows","10.0","null","en-US,en;q=0.9","678c01b6b2da6239b3f5521c","679147d2997803490f072fae","679150ab22caf6371a926e1e","","9517","","1","Intro Trial",""
"","","","","","html-button-response","68","263809","0.0-4.64-0.64-0.64","24","1","2025-01-22 20:16:37","6073afb29c8d06c5d8f22ae9f1371ff8","212.32.102.203","Mozilla/5.0 (Windows NT 10.0; Win64; x64) AppleWebKit/537.36 (KHTML, like Gecko) Chrome/131.0.0.0 Safari/537.36","WebKit","Chrome","131.0.0.0","Windows","10.0","null","en-US,en;q=0.9","678c01b6b2da6239b3f5521c","679147d2997803490f072fae","679150ab22caf6371a926e1e","","3293","","1","Intro Trial",""
"","","","","","html-button-response","69","266053","0.0-4.65-0.65-0.65","24","1","2025-01-22 20:16:37","6073afb29c8d06c5d8f22ae9f1371ff8","212.32.102.203","Mozilla/5.0 (Windows NT 10.0; Win64; x64) AppleWebKit/537.36 (KHTML, like Gecko) Chrome/131.0.0.0 Safari/537.36","WebKit","Chrome","131.0.0.0","Windows","10.0","null","en-US,en;q=0.9","678c01b6b2da6239b3f5521c","679147d2997803490f072fae","679150ab22caf6371a926e1e","","2240","","2","Intro Trial",""
"","","","","","html-button-response","70","266673","0.0-4.66-0.66-0.66","24","1","2025-01-22 20:16:37","6073afb29c8d06c5d8f22ae9f1371ff8","212.32.102.203","Mozilla/5.0 (Windows NT 10.0; Win64; x64) AppleWebKit/537.36 (KHTML, like Gecko) Chrome/131.0.0.0 Safari/537.36","WebKit","Chrome","131.0.0.0","Windows","10.0","null","en-US,en;q=0.9","678c01b6b2da6239b3f5521c","679147d2997803490f072fae","679150ab22caf6371a926e1e","","616","","2","Intro Trial",""
"","","","","","html-button-response","71","267697","0.0-4.67-0.67-0.67","24","1","2025-01-22 20:16:37","6073afb29c8d06c5d8f22ae9f1371ff8","212.32.102.203","Mozilla/5.0 (Windows NT 10.0; Win64; x64) AppleWebKit/537.36 (KHTML, like Gecko) Chrome/131.0.0.0 Safari/537.36","WebKit","Chrome","131.0.0.0","Windows","10.0","null","en-US,en;q=0.9","678c01b6b2da6239b3f5521c","679147d2997803490f072fae","679150ab22caf6371a926e1e","","1021","","2","Intro Trial",""
"","","","","","html-button-response","72","271589","0.0-4.68-0.68-0.68","24","1","2025-01-22 20:16:37","6073afb29c8d06c5d8f22ae9f1371ff8","212.32.102.203","Mozilla/5.0 (Windows NT 10.0; Win64; x64) AppleWebKit/537.36 (KHTML, like Gecko) Chrome/131.0.0.0 Safari/537.36","WebKit","Chrome","131.0.0.0","Windows","10.0","null","en-US,en;q=0.9","678c01b6b2da6239b3f5521c","679147d2997803490f072fae","679150ab22caf6371a926e1e","","3889","","1","Intro Trial",""
"","","","","","html-button-response","73","275553","0.0-4.69-0.69-0.69","24","1","2025-01-22 20:16:37","6073afb29c8d06c5d8f22ae9f1371ff8","212.32.102.203","Mozilla/5.0 (Windows NT 10.0; Win64; x64) AppleWebKit/537.36 (KHTML, like Gecko) Chrome/131.0.0.0 Safari/537.36","WebKit","Chrome","131.0.0.0","Windows","10.0","null","en-US,en;q=0.9","678c01b6b2da6239b3f5521c","679147d2997803490f072fae","679150ab22caf6371a926e1e","","3962","","2","Intro Trial",""
"","","","","","html-button-response","74","276305","0.0-4.70-0.70-0.70","24","1","2025-01-22 20:16:37","6073afb29c8d06c5d8f22ae9f1371ff8","212.32.102.203","Mozilla/5.0 (Windows NT 10.0; Win64; x64) AppleWebKit/537.36 (KHTML, like Gecko) Chrome/131.0.0.0 Safari/537.36","WebKit","Chrome","131.0.0.0","Windows","10.0","null","en-US,en;q=0.9","678c01b6b2da6239b3f5521c","679147d2997803490f072fae","679150ab22caf6371a926e1e","","749","","2","Intro Trial",""
"","","","","","html-button-response","75","277217","0.0-4.71-0.71-0.71","24","1","2025-01-22 20:16:37","6073afb29c8d06c5d8f22ae9f1371ff8","212.32.102.203","Mozilla/5.0 (Windows NT 10.0; Win64; x64) AppleWebKit/537.36 (KHTML, like Gecko) Chrome/131.0.0.0 Safari/537.36","WebKit","Chrome","131.0.0.0","Windows","10.0","null","en-US,en;q=0.9","678c01b6b2da6239b3f5521c","679147d2997803490f072fae","679150ab22caf6371a926e1e","","909","","2","Intro Trial",""
"","","","","","html-button-response","76","281306","0.0-4.72-0.72-0.72","24","1","2025-01-22 20:16:37","6073afb29c8d06c5d8f22ae9f1371ff8","212.32.102.203","Mozilla/5.0 (Windows NT 10.0; Win64; x64) AppleWebKit/537.36 (KHTML, like Gecko) Chrome/131.0.0.0 Safari/537.36","WebKit","Chrome","131.0.0.0","Windows","10.0","null","en-US,en;q=0.9","678c01b6b2da6239b3f5521c","679147d2997803490f072fae","679150ab22caf6371a926e1e","","4087","","2","Intro Trial",""
"","","","","","html-button-response","77","286005","0.0-4.73-0.73-0.73","24","1","2025-01-22 20:16:37","6073afb29c8d06c5d8f22ae9f1371ff8","212.32.102.203","Mozilla/5.0 (Windows NT 10.0; Win64; x64) AppleWebKit/537.36 (KHTML, like Gecko) Chrome/131.0.0.0 Safari/537.36","WebKit","Chrome","131.0.0.0","Windows","10.0","null","en-US,en;q=0.9","678c01b6b2da6239b3f5521c","679147d2997803490f072fae","679150ab22caf6371a926e1e","","4695","","1","Intro Trial",""
"","","","","","html-button-response","78","287321","0.0-4.74-0.74-0.74","24","1","2025-01-22 20:16:37","6073afb29c8d06c5d8f22ae9f1371ff8","212.32.102.203","Mozilla/5.0 (Windows NT 10.0; Win64; x64) AppleWebKit/537.36 (KHTML, like Gecko) Chrome/131.0.0.0 Safari/537.36","WebKit","Chrome","131.0.0.0","Windows","10.0","null","en-US,en;q=0.9","678c01b6b2da6239b3f5521c","679147d2997803490f072fae","679150ab22caf6371a926e1e","","1313","","1","Intro Trial",""
"","","","","","html-button-response","79","289077","0.0-4.75-0.75-0.75","24","1","2025-01-22 20:16:37","6073afb29c8d06c5d8f22ae9f1371ff8","212.32.102.203","Mozilla/5.0 (Windows NT 10.0; Win64; x64) AppleWebKit/537.36 (KHTML, like Gecko) Chrome/131.0.0.0 Safari/537.36","WebKit","Chrome","131.0.0.0","Windows","10.0","null","en-US,en;q=0.9","678c01b6b2da6239b3f5521c","679147d2997803490f072fae","679150ab22caf6371a926e1e","","1752","","2","Intro Trial",""
"","","","","","html-button-response","80","291397","0.0-4.76-0.76-0.76","24","1","2025-01-22 20:16:37","6073afb29c8d06c5d8f22ae9f1371ff8","212.32.102.203","Mozilla/5.0 (Windows NT 10.0; Win64; x64) AppleWebKit/537.36 (KHTML, like Gecko) Chrome/131.0.0.0 Safari/537.36","WebKit","Chrome","131.0.0.0","Windows","10.0","null","en-US,en;q=0.9","678c01b6b2da6239b3f5521c","679147d2997803490f072fae","679150ab22caf6371a926e1e","","2317","","3","Intro Trial",""
"","","","","","html-button-response","81","292813","0.0-4.77-0.77-0.77","24","1","2025-01-22 20:16:37","6073afb29c8d06c5d8f22ae9f1371ff8","212.32.102.203","Mozilla/5.0 (Windows NT 10.0; Win64; x64) AppleWebKit/537.36 (KHTML, like Gecko) Chrome/131.0.0.0 Safari/537.36","WebKit","Chrome","131.0.0.0","Windows","10.0","null","en-US,en;q=0.9","678c01b6b2da6239b3f5521c","679147d2997803490f072fae","679150ab22caf6371a926e1e","","1413","","2","Intro Trial",""
"","","","","","html-button-response","82","307417","0.0-4.78-0.78-0.78","24","1","2025-01-22 20:16:37","6073afb29c8d06c5d8f22ae9f1371ff8","212.32.102.203","Mozilla/5.0 (Windows NT 10.0; Win64; x64) AppleWebKit/537.36 (KHTML, like Gecko) Chrome/131.0.0.0 Safari/537.36","WebKit","Chrome","131.0.0.0","Windows","10.0","null","en-US,en;q=0.9","678c01b6b2da6239b3f5521c","679147d2997803490f072fae","679150ab22caf6371a926e1e","","14601","","3","Intro Trial",""
"","","","","","html-button-response","83","311637","0.0-4.79-0.79-0.79","24","1","2025-01-22 20:16:37","6073afb29c8d06c5d8f22ae9f1371ff8","212.32.102.203","Mozilla/5.0 (Windows NT 10.0; Win64; x64) AppleWebKit/537.36 (KHTML, like Gecko) Chrome/131.0.0.0 Safari/537.36","WebKit","Chrome","131.0.0.0","Windows","10.0","null","en-US,en;q=0.9","678c01b6b2da6239b3f5521c","679147d2997803490f072fae","679150ab22caf6371a926e1e","","4217","","2","Intro Trial",""
"","","","","","html-button-response","84","314421","0.0-4.80-0.80-0.80","24","1","2025-01-22 20:16:37","6073afb29c8d06c5d8f22ae9f1371ff8","212.32.102.203","Mozilla/5.0 (Windows NT 10.0; Win64; x64) AppleWebKit/537.36 (KHTML, like Gecko) Chrome/131.0.0.0 Safari/537.36","WebKit","Chrome","131.0.0.0","Windows","10.0","null","en-US,en;q=0.9","678c01b6b2da6239b3f5521c","679147d2997803490f072fae","679150ab22caf6371a926e1e","","2781","","1","Intro Trial",""
"","","","","","html-button-response","85","315709","0.0-4.81-0.81-0.81","24","1","2025-01-22 20:16:37","6073afb29c8d06c5d8f22ae9f1371ff8","212.32.102.203","Mozilla/5.0 (Windows NT 10.0; Win64; x64) AppleWebKit/537.36 (KHTML, like Gecko) Chrome/131.0.0.0 Safari/537.36","WebKit","Chrome","131.0.0.0","Windows","10.0","null","en-US,en;q=0.9","678c01b6b2da6239b3f5521c","679147d2997803490f072fae","679150ab22caf6371a926e1e","","1285","","3","Intro Trial",""
"","","","","","html-button-response","86","316397","0.0-4.82-0.82-0.82","24","1","2025-01-22 20:16:37","6073afb29c8d06c5d8f22ae9f1371ff8","212.32.102.203","Mozilla/5.0 (Windows NT 10.0; Win64; x64) AppleWebKit/537.36 (KHTML, like Gecko) Chrome/131.0.0.0 Safari/537.36","WebKit","Chrome","131.0.0.0","Windows","10.0","null","en-US,en;q=0.9","678c01b6b2da6239b3f5521c","679147d2997803490f072fae","679150ab22caf6371a926e1e","","684","","3","Intro Trial",""
"","","","","","html-button-response","87","317133","0.0-4.83-0.83-0.83","24","1","2025-01-22 20:16:37","6073afb29c8d06c5d8f22ae9f1371ff8","212.32.102.203","Mozilla/5.0 (Windows NT 10.0; Win64; x64) AppleWebKit/537.36 (KHTML, like Gecko) Chrome/131.0.0.0 Safari/537.36","WebKit","Chrome","131.0.0.0","Windows","10.0","null","en-US,en;q=0.9","678c01b6b2da6239b3f5521c","679147d2997803490f072fae","679150ab22caf6371a926e1e","","732","","4","Intro Trial",""
"","","","","","html-button-response","88","319173","0.0-4.84-0.84-0.84","24","1","2025-01-22 20:16:37","6073afb29c8d06c5d8f22ae9f1371ff8","212.32.102.203","Mozilla/5.0 (Windows NT 10.0; Win64; x64) AppleWebKit/537.36 (KHTML, like Gecko) Chrome/131.0.0.0 Safari/537.36","WebKit","Chrome","131.0.0.0","Windows","10.0","null","en-US,en;q=0.9","678c01b6b2da6239b3f5521c","679147d2997803490f072fae","679150ab22caf6371a926e1e","","2037","","1","Intro Trial",""
"","","","","","html-button-response","89","320613","0.0-4.85-0.85-0.85","24","1","2025-01-22 20:16:37","6073afb29c8d06c5d8f22ae9f1371ff8","212.32.102.203","Mozilla/5.0 (Windows NT 10.0; Win64; x64) AppleWebKit/537.36 (KHTML, like Gecko) Chrome/131.0.0.0 Safari/537.36","WebKit","Chrome","131.0.0.0","Windows","10.0","null","en-US,en;q=0.9","678c01b6b2da6239b3f5521c","679147d2997803490f072fae","679150ab22caf6371a926e1e","","1437","","5","Intro Trial",""
"","","","","","html-keyboard-response","90","334825","0.0-5.0","24","1","2025-01-22 20:16:37","6073afb29c8d06c5d8f22ae9f1371ff8","212.32.102.203","Mozilla/5.0 (Windows NT 10.0; Win64; x64) AppleWebKit/537.36 (KHTML, like Gecko) Chrome/131.0.0.0 Safari/537.36","WebKit","Chrome","131.0.0.0","Windows","10.0","null","en-US,en;q=0.9","678c01b6b2da6239b3f5521c","679147d2997803490f072fae","679150ab22caf6371a926e1e","","14208","[""You sorted correctly by using the balance 39 times. <br><br> <img src='G_5.jpg' height='90'><img src='G_2.jpg' height='90'><img src='G_3.jpg' height='90'><img src='G_1.jpg' height='90'><img src='G_4.jpg' height='90'><br><br> Your final order is 1,2,3,4,5<br><br><br>Omgne Sort in this game will allow you to sort correctly by using the balance 8 times. Press Enter to learn it!""]","enter","",""
"","","","","","html-keyboard-response","91","337627","0.0-6.0","24","1","2025-01-22 20:16:37","6073afb29c8d06c5d8f22ae9f1371ff8","212.32.102.203","Mozilla/5.0 (Windows NT 10.0; Win64; x64) AppleWebKit/537.36 (KHTML, like Gecko) Chrome/131.0.0.0 Safari/537.36","WebKit","Chrome","131.0.0.0","Windows","10.0","null","en-US,en;q=0.9","678c01b6b2da6239b3f5521c","679147d2997803490f072fae","679150ab22caf6371a926e1e","","2800","<p>Welcome to the learning phase! <br><br> You will learn by four examples. The following learning trials will not be used to calculate your performance. <br><br> Press Enter to continue.<p/>","enter","",""
"","","","","","html-keyboard-response","92","352254","0.0-7.0","24","1","2025-01-22 20:16:37","6073afb29c8d06c5d8f22ae9f1371ff8","212.32.102.203","Mozilla/5.0 (Windows NT 10.0; Win64; x64) AppleWebKit/537.36 (KHTML, like Gecko) Chrome/131.0.0.0 Safari/537.36","WebKit","Chrome","131.0.0.0","Windows","10.0","null","en-US,en;q=0.9","678c01b6b2da6239b3f5521c","679147d2997803490f072fae","679150ab22caf6371a926e1e","","14625","[""Example 1<br><br>You will watch Omnge Sort in action. Try to identify any patterns in the comparisons made by this method. <br><br>Press Enter to continue.""]","enter","",""
"","","","","","html-keyboard-response","93","352765","0.0-8.0","24","1","2025-01-22 20:16:37","6073afb29c8d06c5d8f22ae9f1371ff8","212.32.102.203","Mozilla/5.0 (Windows NT 10.0; Win64; x64) AppleWebKit/537.36 (KHTML, like Gecko) Chrome/131.0.0.0 Safari/537.36","WebKit","Chrome","131.0.0.0","Windows","10.0","null","en-US,en;q=0.9","678c01b6b2da6239b3f5521c","679147d2997803490f072fae","679150ab22caf6371a926e1e","","null","<img id='selected' src='G_9.jpg' height='90'> <img src='G_1.jpg' height='90'> <img src='G_5.jpg' height='90'> <img src='G_3.jpg' height='90'> <img src='G_7.jpg' height='90'>","null","Animation0",""
"","","","","","html-keyboard-response","94","353282","0.0-9.0","24","1","2025-01-22 20:16:37","6073afb29c8d06c5d8f22ae9f1371ff8","212.32.102.203","Mozilla/5.0 (Windows NT 10.0; Win64; x64) AppleWebKit/537.36 (KHTML, like Gecko) Chrome/131.0.0.0 Safari/537.36","WebKit","Chrome","131.0.0.0","Windows","10.0","null","en-US,en;q=0.9","678c01b6b2da6239b3f5521c","679147d2997803490f072fae","679150ab22caf6371a926e1e","","null","<img id='selected' src='G_9.jpg' height='90'> <img id='selected' src='G_1.jpg' height='90'> <img src='G_5.jpg' height='90'> <img src='G_3.jpg' height='90'> <img src='G_7.jpg' height='90'>","null","Animation0",""
"","","","","","html-keyboard-response","95","353798","0.0-10.0","24","1","2025-01-22 20:16:37","6073afb29c8d06c5d8f22ae9f1371ff8","212.32.102.203","Mozilla/5.0 (Windows NT 10.0; Win64; x64) AppleWebKit/537.36 (KHTML, like Gecko) Chrome/131.0.0.0 Safari/537.36","WebKit","Chrome","131.0.0.0","Windows","10.0","null","en-US,en;q=0.9","678c01b6b2da6239b3f5521c","679147d2997803490f072fae","679150ab22caf6371a926e1e","","null","<img id='swapped' src='G_1.jpg' height='90'> <img id='swapped' src='G_9.jpg' height='90'> <img src='G_5.jpg' height='90'> <img src='G_3.jpg' height='90'> <img src='G_7.jpg' height='90'>","null","Animation0",""
"","","","","","html-keyboard-response","96","354110","0.0-11.0","24","1","2025-01-22 20:16:37","6073afb29c8d06c5d8f22ae9f1371ff8","212.32.102.203","Mozilla/5.0 (Windows NT 10.0; Win64; x64) AppleWebKit/537.36 (KHTML, like Gecko) Chrome/131.0.0.0 Safari/537.36","WebKit","Chrome","131.0.0.0","Windows","10.0","null","en-US,en;q=0.9","678c01b6b2da6239b3f5521c","679147d2997803490f072fae","679150ab22caf6371a926e1e","","null","<img  src='G_1.jpg' height='90'> <img  src='G_9.jpg' height='90'> <img src='G_5.jpg' height='90'> <img src='G_3.jpg' height='90'> <img src='G_7.jpg' height='90'>","null","Animation0",""
"","","","","","html-keyboard-response","97","354624","0.0-12.0","24","1","2025-01-22 20:16:37","6073afb29c8d06c5d8f22ae9f1371ff8","212.32.102.203","Mozilla/5.0 (Windows NT 10.0; Win64; x64) AppleWebKit/537.36 (KHTML, like Gecko) Chrome/131.0.0.0 Safari/537.36","WebKit","Chrome","131.0.0.0","Windows","10.0","null","en-US,en;q=0.9","678c01b6b2da6239b3f5521c","679147d2997803490f072fae","679150ab22caf6371a926e1e","","null","<img  src='G_1.jpg' height='90'> <img id='selected'  src='G_9.jpg' height='90'> <img src='G_5.jpg' height='90'> <img src='G_3.jpg' height='90'> <img src='G_7.jpg' height='90'>","null","Animation0",""
"","","","","","html-keyboard-response","98","355138","0.0-13.0","24","1","2025-01-22 20:16:37","6073afb29c8d06c5d8f22ae9f1371ff8","212.32.102.203","Mozilla/5.0 (Windows NT 10.0; Win64; x64) AppleWebKit/537.36 (KHTML, like Gecko) Chrome/131.0.0.0 Safari/537.36","WebKit","Chrome","131.0.0.0","Windows","10.0","null","en-US,en;q=0.9","678c01b6b2da6239b3f5521c","679147d2997803490f072fae","679150ab22caf6371a926e1e","","null","<img  src='G_1.jpg' height='90'> <img id='selected'  src='G_9.jpg' height='90'> <img id='selected' src='G_5.jpg' height='90'> <img src='G_3.jpg' height='90'> <img src='G_7.jpg' height='90'>","null","Animation0",""
"","","","","","html-keyboard-response","99","355653","0.0-14.0","24","1","2025-01-22 20:16:37","6073afb29c8d06c5d8f22ae9f1371ff8","212.32.102.203","Mozilla/5.0 (Windows NT 10.0; Win64; x64) AppleWebKit/537.36 (KHTML, like Gecko) Chrome/131.0.0.0 Safari/537.36","WebKit","Chrome","131.0.0.0","Windows","10.0","null","en-US,en;q=0.9","678c01b6b2da6239b3f5521c","679147d2997803490f072fae","679150ab22caf6371a926e1e","","null","<img  src='G_1.jpg' height='90'> <img id='selected'  src='G_9.jpg' height='90'> <img id='selected' src='G_5.jpg' height='90'> <img src='G_3.jpg' height='90'> <img src='G_7.jpg' height='90'>","null","Animation0",""
"","","","","","html-keyboard-response","100","355980","0.0-15.0","24","1","2025-01-22 20:16:37","6073afb29c8d06c5d8f22ae9f1371ff8","212.32.102.203","Mozilla/5.0 (Windows NT 10.0; Win64; x64) AppleWebKit/537.36 (KHTML, like Gecko) Chrome/131.0.0.0 Safari/537.36","WebKit","Chrome","131.0.0.0","Windows","10.0","null","en-US,en;q=0.9","678c01b6b2da6239b3f5521c","679147d2997803490f072fae","679150ab22caf6371a926e1e","","null","<img  src='G_1.jpg' height='90'> <img   src='G_9.jpg' height='90'> <img  src='G_5.jpg' height='90'> <img src='G_3.jpg' height='90'> <img src='G_7.jpg' height='90'>","null","Animation0",""
"","","","","","html-keyboard-response","101","356495","0.0-16.0","24","1","2025-01-22 20:16:37","6073afb29c8d06c5d8f22ae9f1371ff8","212.32.102.203","Mozilla/5.0 (Windows NT 10.0; Win64; x64) AppleWebKit/537.36 (KHTML, like Gecko) Chrome/131.0.0.0 Safari/537.36","WebKit","Chrome","131.0.0.0","Windows","10.0","null","en-US,en;q=0.9","678c01b6b2da6239b3f5521c","679147d2997803490f072fae","679150ab22caf6371a926e1e","","null","<img  src='G_1.jpg' height='90'> <img   src='G_9.jpg' height='90'> <img id='selected'  src='G_5.jpg' height='90'> <img src='G_3.jpg' height='90'> <img src='G_7.jpg' height='90'>","null","Animation0",""
"","","","","","html-keyboard-response","102","357010","0.0-17.0","24","1","2025-01-22 20:16:37","6073afb29c8d06c5d8f22ae9f1371ff8","212.32.102.203","Mozilla/5.0 (Windows NT 10.0; Win64; x64) AppleWebKit/537.36 (KHTML, like Gecko) Chrome/131.0.0.0 Safari/537.36","WebKit","Chrome","131.0.0.0","Windows","10.0","null","en-US,en;q=0.9","678c01b6b2da6239b3f5521c","679147d2997803490f072fae","679150ab22caf6371a926e1e","","null","<img  src='G_1.jpg' height='90'> <img   src='G_9.jpg' height='90'> <img id='selected'  src='G_5.jpg' height='90'> <img id='selected' src='G_3.jpg' height='90'> <img src='G_7.jpg' height='90'>","null","Animation0",""
"","","","","","html-keyboard-response","103","357527","0.0-18.0","24","1","2025-01-22 20:16:37","6073afb29c8d06c5d8f22ae9f1371ff8","212.32.102.203","Mozilla/5.0 (Windows NT 10.0; Win64; x64) AppleWebKit/537.36 (KHTML, like Gecko) Chrome/131.0.0.0 Safari/537.36","WebKit","Chrome","131.0.0.0","Windows","10.0","null","en-US,en;q=0.9","678c01b6b2da6239b3f5521c","679147d2997803490f072fae","679150ab22caf6371a926e1e","","null","<img  src='G_1.jpg' height='90'> <img   src='G_9.jpg' height='90'> <img id='selected'  src='G_5.jpg' height='90'> <img id='selected' src='G_3.jpg' height='90'> <img src='G_7.jpg' height='90'>","null","Animation0",""
"","","","","","html-keyboard-response","104","357851","0.0-19.0","24","1","2025-01-22 20:16:37","6073afb29c8d06c5d8f22ae9f1371ff8","212.32.102.203","Mozilla/5.0 (Windows NT 10.0; Win64; x64) AppleWebKit/537.36 (KHTML, like Gecko) Chrome/131.0.0.0 Safari/537.36","WebKit","Chrome","131.0.0.0","Windows","10.0","null","en-US,en;q=0.9","678c01b6b2da6239b3f5521c","679147d2997803490f072fae","679150ab22caf6371a926e1e","","null","<img  src='G_1.jpg' height='90'> <img   src='G_9.jpg' height='90'> <img   src='G_5.jpg' height='90'> <img  src='G_3.jpg' height='90'> <img src='G_7.jpg' height='90'>","null","Animation0",""
"","","","","","html-keyboard-response","105","358363","0.0-20.0","24","1","2025-01-22 20:16:37","6073afb29c8d06c5d8f22ae9f1371ff8","212.32.102.203","Mozilla/5.0 (Windows NT 10.0; Win64; x64) AppleWebKit/537.36 (KHTML, like Gecko) Chrome/131.0.0.0 Safari/537.36","WebKit","Chrome","131.0.0.0","Windows","10.0","null","en-US,en;q=0.9","678c01b6b2da6239b3f5521c","679147d2997803490f072fae","679150ab22caf6371a926e1e","","null","<img  src='G_1.jpg' height='90'> <img   src='G_9.jpg' height='90'> <img   src='G_5.jpg' height='90'> <img id='selected'  src='G_3.jpg' height='90'> <img src='G_7.jpg' height='90'>","null","Animation0",""
"","","","","","html-keyboard-response","106","358878","0.0-21.0","24","1","2025-01-22 20:16:37","6073afb29c8d06c5d8f22ae9f1371ff8","212.32.102.203","Mozilla/5.0 (Windows NT 10.0; Win64; x64) AppleWebKit/537.36 (KHTML, like Gecko) Chrome/131.0.0.0 Safari/537.36","WebKit","Chrome","131.0.0.0","Windows","10.0","null","en-US,en;q=0.9","678c01b6b2da6239b3f5521c","679147d2997803490f072fae","679150ab22caf6371a926e1e","","null","<img  src='G_1.jpg' height='90'> <img   src='G_9.jpg' height='90'> <img   src='G_5.jpg' height='90'> <img id='selected'  src='G_3.jpg' height='90'> <img id='selected' src='G_7.jpg' height='90'>","null","Animation0",""
"","","","","","html-keyboard-response","107","359394","0.0-22.0","24","1","2025-01-22 20:16:37","6073afb29c8d06c5d8f22ae9f1371ff8","212.32.102.203","Mozilla/5.0 (Windows NT 10.0; Win64; x64) AppleWebKit/537.36 (KHTML, like Gecko) Chrome/131.0.0.0 Safari/537.36","WebKit","Chrome","131.0.0.0","Windows","10.0","null","en-US,en;q=0.9","678c01b6b2da6239b3f5521c","679147d2997803490f072fae","679150ab22caf6371a926e1e","","null","<img  src='G_1.jpg' height='90'> <img   src='G_9.jpg' height='90'> <img   src='G_5.jpg' height='90'> <img id='selected'  src='G_3.jpg' height='90'> <img id='selected' src='G_7.jpg' height='90'>","null","Animation0",""
"","","","","","html-keyboard-response","108","359722","0.0-23.0","24","1","2025-01-22 20:16:37","6073afb29c8d06c5d8f22ae9f1371ff8","212.32.102.203","Mozilla/5.0 (Windows NT 10.0; Win64; x64) AppleWebKit/537.36 (KHTML, like Gecko) Chrome/131.0.0.0 Safari/537.36","WebKit","Chrome","131.0.0.0","Windows","10.0","null","en-US,en;q=0.9","678c01b6b2da6239b3f5521c","679147d2997803490f072fae","679150ab22caf6371a926e1e","","null","<img  src='G_1.jpg' height='90'> <img   src='G_9.jpg' height='90'> <img   src='G_5.jpg' height='90'> <img   src='G_3.jpg' height='90'> <img  src='G_7.jpg' height='90'>","null","Animation0",""
"","","","","","html-keyboard-response","109","363816","0.0-24.0","24","1","2025-01-22 20:16:37","6073afb29c8d06c5d8f22ae9f1371ff8","212.32.102.203","Mozilla/5.0 (Windows NT 10.0; Win64; x64) AppleWebKit/537.36 (KHTML, like Gecko) Chrome/131.0.0.0 Safari/537.36","WebKit","Chrome","131.0.0.0","Windows","10.0","null","en-US,en;q=0.9","678c01b6b2da6239b3f5521c","679147d2997803490f072fae","679150ab22caf6371a926e1e","","4082","[""Did you notice any patterns? <br><br>Press Enter to watch that example again and follow the steps of Omgne Sort.""]","enter","",""
"","","","","","html-button-response","110","364235","0.0-25.0","24","1","2025-01-22 20:16:37","6073afb29c8d06c5d8f22ae9f1371ff8","212.32.102.203","Mozilla/5.0 (Windows NT 10.0; Win64; x64) AppleWebKit/537.36 (KHTML, like Gecko) Chrome/131.0.0.0 Safari/537.36","WebKit","Chrome","131.0.0.0","Windows","10.0","null","en-US,en;q=0.9","678c01b6b2da6239b3f5521c","679147d2997803490f072fae","679150ab22caf6371a926e1e","","null","<img id='selected' src='G_9.jpg' height='90'> <img src='G_1.jpg' height='90'> <img src='G_5.jpg' height='90'> <img src='G_3.jpg' height='90'> <img src='G_7.jpg' height='90'>","null","Learning example 0",""
"","","","","","html-button-response","111","364563","0.0-26.0","24","1","2025-01-22 20:16:37","6073afb29c8d06c5d8f22ae9f1371ff8","212.32.102.203","Mozilla/5.0 (Windows NT 10.0; Win64; x64) AppleWebKit/537.36 (KHTML, like Gecko) Chrome/131.0.0.0 Safari/537.36","WebKit","Chrome","131.0.0.0","Windows","10.0","null","en-US,en;q=0.9","678c01b6b2da6239b3f5521c","679147d2997803490f072fae","679150ab22caf6371a926e1e","","null","<img id='selected' src='G_9.jpg' height='90'> <img id='selected' src='G_1.jpg' height='90'> <img src='G_5.jpg' height='90'> <img src='G_3.jpg' height='90'> <img src='G_7.jpg' height='90'>","null","Learning example 0",""
"","","","","","html-button-response","112","364876","0.0-27.0","24","1","2025-01-22 20:16:37","6073afb29c8d06c5d8f22ae9f1371ff8","212.32.102.203","Mozilla/5.0 (Windows NT 10.0; Win64; x64) AppleWebKit/537.36 (KHTML, like Gecko) Chrome/131.0.0.0 Safari/537.36","WebKit","Chrome","131.0.0.0","Windows","10.0","null","en-US,en;q=0.9","678c01b6b2da6239b3f5521c","679147d2997803490f072fae","679150ab22caf6371a926e1e","","null","<img id='swapped' src='G_1.jpg' height='90'> <img id='swapped' src='G_9.jpg' height='90'> <img src='G_5.jpg' height='90'> <img src='G_3.jpg' height='90'> <img src='G_7.jpg' height='90'>","null","Learning example 0",""
"","","","","","html-button-response","113","382493","0.0-28.0-0.0-0.0","24","1","2025-01-22 20:16:37","6073afb29c8d06c5d8f22ae9f1371ff8","212.32.102.203","Mozilla/5.0 (Windows NT 10.0; Win64; x64) AppleWebKit/537.36 (KHTML, like Gecko) Chrome/131.0.0.0 Safari/537.36","WebKit","Chrome","131.0.0.0","Windows","10.0","null","en-US,en;q=0.9","678c01b6b2da6239b3f5521c","679147d2997803490f072fae","679150ab22caf6371a926e1e","","17612","<img id='swapped' src='G_1.jpg' height='90'> <img id='swapped' src='G_9.jpg' height='90'> <img src='G_5.jpg' height='90'> <img src='G_3.jpg' height='90'> <img src='G_7.jpg' height='90'>","1","Learning example 0",""
"","","","","","html-button-response","114","387329","0.0-28.1-0.1-0.1","24","1","2025-01-22 20:16:37","6073afb29c8d06c5d8f22ae9f1371ff8","212.32.102.203","Mozilla/5.0 (Windows NT 10.0; Win64; x64) AppleWebKit/537.36 (KHTML, like Gecko) Chrome/131.0.0.0 Safari/537.36","WebKit","Chrome","131.0.0.0","Windows","10.0","null","en-US,en;q=0.9","678c01b6b2da6239b3f5521c","679147d2997803490f072fae","679150ab22caf6371a926e1e","","4831","<img id='swapped' src='G_1.jpg' height='90'> <img id='swapped' src='G_9.jpg' height='90'> <img src='G_5.jpg' height='90'> <img src='G_3.jpg' height='90'> <img src='G_7.jpg' height='90'>","0","Learning example 0",""
"","","","","","html-button-response","115","387535","0.0-29.0","24","1","2025-01-22 20:16:37","6073afb29c8d06c5d8f22ae9f1371ff8","212.32.102.203","Mozilla/5.0 (Windows NT 10.0; Win64; x64) AppleWebKit/537.36 (KHTML, like Gecko) Chrome/131.0.0.0 Safari/537.36","WebKit","Chrome","131.0.0.0","Windows","10.0","null","en-US,en;q=0.9","678c01b6b2da6239b3f5521c","679147d2997803490f072fae","679150ab22caf6371a926e1e","","null","<img  src='G_1.jpg' height='90'> <img  src='G_9.jpg' height='90'> <img src='G_5.jpg' height='90'> <img src='G_3.jpg' height='90'> <img src='G_7.jpg' height='90'>","null","Learning example 0",""
"","","","","","html-button-response","116","387955","0.0-30.0","24","1","2025-01-22 20:16:37","6073afb29c8d06c5d8f22ae9f1371ff8","212.32.102.203","Mozilla/5.0 (Windows NT 10.0; Win64; x64) AppleWebKit/537.36 (KHTML, like Gecko) Chrome/131.0.0.0 Safari/537.36","WebKit","Chrome","131.0.0.0","Windows","10.0","null","en-US,en;q=0.9","678c01b6b2da6239b3f5521c","679147d2997803490f072fae","679150ab22caf6371a926e1e","","null","<img  src='G_1.jpg' height='90'> <img id='selected'  src='G_9.jpg' height='90'> <img src='G_5.jpg' height='90'> <img src='G_3.jpg' height='90'> <img src='G_7.jpg' height='90'>","null","Learning example 0",""
"","","","","","html-button-response","117","388263","0.0-31.0","24","1","2025-01-22 20:16:37","6073afb29c8d06c5d8f22ae9f1371ff8","212.32.102.203","Mozilla/5.0 (Windows NT 10.0; Win64; x64) AppleWebKit/537.36 (KHTML, like Gecko) Chrome/131.0.0.0 Safari/537.36","WebKit","Chrome","131.0.0.0","Windows","10.0","null","en-US,en;q=0.9","678c01b6b2da6239b3f5521c","679147d2997803490f072fae","679150ab22caf6371a926e1e","","null","<img  src='G_1.jpg' height='90'> <img id='selected'  src='G_9.jpg' height='90'> <img id='selected' src='G_5.jpg' height='90'> <img src='G_3.jpg' height='90'> <img src='G_7.jpg' height='90'>","null","Learning example 0",""
"","","","","","html-button-response","118","388576","0.0-32.0","24","1","2025-01-22 20:16:37","6073afb29c8d06c5d8f22ae9f1371ff8","212.32.102.203","Mozilla/5.0 (Windows NT 10.0; Win64; x64) AppleWebKit/537.36 (KHTML, like Gecko) Chrome/131.0.0.0 Safari/537.36","WebKit","Chrome","131.0.0.0","Windows","10.0","null","en-US,en;q=0.9","678c01b6b2da6239b3f5521c","679147d2997803490f072fae","679150ab22caf6371a926e1e","","null","<img  src='G_1.jpg' height='90'> <img id='selected'  src='G_9.jpg' height='90'> <img id='selected' src='G_5.jpg' height='90'> <img src='G_3.jpg' height='90'> <img src='G_7.jpg' height='90'>","null","Learning example 0",""
"","","","","","html-button-response","119","413361","0.0-33.0-0.0-0.0","24","1","2025-01-22 20:16:37","6073afb29c8d06c5d8f22ae9f1371ff8","212.32.102.203","Mozilla/5.0 (Windows NT 10.0; Win64; x64) AppleWebKit/537.36 (KHTML, like Gecko) Chrome/131.0.0.0 Safari/537.36","WebKit","Chrome","131.0.0.0","Windows","10.0","null","en-US,en;q=0.9","678c01b6b2da6239b3f5521c","679147d2997803490f072fae","679150ab22caf6371a926e1e","","24779","<img  src='G_1.jpg' height='90'> <img id='selected'  src='G_9.jpg' height='90'> <img id='selected' src='G_5.jpg' height='90'> <img src='G_3.jpg' height='90'> <img src='G_7.jpg' height='90'>","1","Learning example 0",""
"","","","","","html-button-response","120","414269","0.0-33.1-0.1-0.1","24","1","2025-01-22 20:16:37","6073afb29c8d06c5d8f22ae9f1371ff8","212.32.102.203","Mozilla/5.0 (Windows NT 10.0; Win64; x64) AppleWebKit/537.36 (KHTML, like Gecko) Chrome/131.0.0.0 Safari/537.36","WebKit","Chrome","131.0.0.0","Windows","10.0","null","en-US,en;q=0.9","678c01b6b2da6239b3f5521c","679147d2997803490f072fae","679150ab22caf6371a926e1e","","904","<img  src='G_1.jpg' height='90'> <img id='selected'  src='G_9.jpg' height='90'> <img id='selected' src='G_5.jpg' height='90'> <img src='G_3.jpg' height='90'> <img src='G_7.jpg' height='90'>","0","Learning example 0",""
"","","","","","html-button-response","121","416928","0.0-33.2-0.2-0.2","24","1","2025-01-22 20:16:37","6073afb29c8d06c5d8f22ae9f1371ff8","212.32.102.203","Mozilla/5.0 (Windows NT 10.0; Win64; x64) AppleWebKit/537.36 (KHTML, like Gecko) Chrome/131.0.0.0 Safari/537.36","WebKit","Chrome","131.0.0.0","Windows","10.0","null","en-US,en;q=0.9","678c01b6b2da6239b3f5521c","679147d2997803490f072fae","679150ab22caf6371a926e1e","","2655","<img  src='G_1.jpg' height='90'> <img id='selected'  src='G_9.jpg' height='90'> <img id='selected' src='G_5.jpg' height='90'> <img src='G_3.jpg' height='90'> <img src='G_7.jpg' height='90'>","2","Learning example 0",""
"","","","","","html-button-response","122","417509","0.0-33.3-0.3-0.3","24","1","2025-01-22 20:16:37","6073afb29c8d06c5d8f22ae9f1371ff8","212.32.102.203","Mozilla/5.0 (Windows NT 10.0; Win64; x64) AppleWebKit/537.36 (KHTML, like Gecko) Chrome/131.0.0.0 Safari/537.36","WebKit","Chrome","131.0.0.0","Windows","10.0","null","en-US,en;q=0.9","678c01b6b2da6239b3f5521c","679147d2997803490f072fae","679150ab22caf6371a926e1e","","576","<img  src='G_1.jpg' height='90'> <img id='selected'  src='G_9.jpg' height='90'> <img id='selected' src='G_5.jpg' height='90'> <img src='G_3.jpg' height='90'> <img src='G_7.jpg' height='90'>","3","Learning example 0",""
"","","","","","html-button-response","123","418713","0.0-33.4-0.4-0.4","24","1","2025-01-22 20:16:37","6073afb29c8d06c5d8f22ae9f1371ff8","212.32.102.203","Mozilla/5.0 (Windows NT 10.0; Win64; x64) AppleWebKit/537.36 (KHTML, like Gecko) Chrome/131.0.0.0 Safari/537.36","WebKit","Chrome","131.0.0.0","Windows","10.0","null","en-US,en;q=0.9","678c01b6b2da6239b3f5521c","679147d2997803490f072fae","679150ab22caf6371a926e1e","","1200","<img  src='G_1.jpg' height='90'> <img id='selected'  src='G_9.jpg' height='90'> <img id='selected' src='G_5.jpg' height='90'> <img src='G_3.jpg' height='90'> <img src='G_7.jpg' height='90'>","3","Learning example 0",""
"","","","","","html-button-response","124","427473","0.0-33.5-0.5-0.5","24","1","2025-01-22 20:16:37","6073afb29c8d06c5d8f22ae9f1371ff8","212.32.102.203","Mozilla/5.0 (Windows NT 10.0; Win64; x64) AppleWebKit/537.36 (KHTML, like Gecko) Chrome/131.0.0.0 Safari/537.36","WebKit","Chrome","131.0.0.0","Windows","10.0","null","en-US,en;q=0.9","678c01b6b2da6239b3f5521c","679147d2997803490f072fae","679150ab22caf6371a926e1e","","8756","<img  src='G_1.jpg' height='90'> <img id='selected'  src='G_9.jpg' height='90'> <img id='selected' src='G_5.jpg' height='90'> <img src='G_3.jpg' height='90'> <img src='G_7.jpg' height='90'>","3","Learning example 0",""
"","","","","","html-button-response","125","429505","0.0-33.6-0.6-0.6","24","1","2025-01-22 20:16:37","6073afb29c8d06c5d8f22ae9f1371ff8","212.32.102.203","Mozilla/5.0 (Windows NT 10.0; Win64; x64) AppleWebKit/537.36 (KHTML, like Gecko) Chrome/131.0.0.0 Safari/537.36","WebKit","Chrome","131.0.0.0","Windows","10.0","null","en-US,en;q=0.9","678c01b6b2da6239b3f5521c","679147d2997803490f072fae","679150ab22caf6371a926e1e","","2027","<img  src='G_1.jpg' height='90'> <img id='selected'  src='G_9.jpg' height='90'> <img id='selected' src='G_5.jpg' height='90'> <img src='G_3.jpg' height='90'> <img src='G_7.jpg' height='90'>","4","Learning example 0",""
"","","","","","html-button-response","126","433369","0.0-33.7-0.7-0.7","24","1","2025-01-22 20:16:37","6073afb29c8d06c5d8f22ae9f1371ff8","212.32.102.203","Mozilla/5.0 (Windows NT 10.0; Win64; x64) AppleWebKit/537.36 (KHTML, like Gecko) Chrome/131.0.0.0 Safari/537.36","WebKit","Chrome","131.0.0.0","Windows","10.0","null","en-US,en;q=0.9","678c01b6b2da6239b3f5521c","679147d2997803490f072fae","679150ab22caf6371a926e1e","","3859","<img  src='G_1.jpg' height='90'> <img id='selected'  src='G_9.jpg' height='90'> <img id='selected' src='G_5.jpg' height='90'> <img src='G_3.jpg' height='90'> <img src='G_7.jpg' height='90'>","0","Learning example 0",""
"","","","","","html-button-response","127","435177","0.0-33.8-0.8-0.8","24","1","2025-01-22 20:16:37","6073afb29c8d06c5d8f22ae9f1371ff8","212.32.102.203","Mozilla/5.0 (Windows NT 10.0; Win64; x64) AppleWebKit/537.36 (KHTML, like Gecko) Chrome/131.0.0.0 Safari/537.36","WebKit","Chrome","131.0.0.0","Windows","10.0","null","en-US,en;q=0.9","678c01b6b2da6239b3f5521c","679147d2997803490f072fae","679150ab22caf6371a926e1e","","1803","<img  src='G_1.jpg' height='90'> <img id='selected'  src='G_9.jpg' height='90'> <img id='selected' src='G_5.jpg' height='90'> <img src='G_3.jpg' height='90'> <img src='G_7.jpg' height='90'>","1","Learning example 0",""
"","","","","","html-button-response","128","436272","0.0-33.9-0.9-0.9","24","1","2025-01-22 20:16:37","6073afb29c8d06c5d8f22ae9f1371ff8","212.32.102.203","Mozilla/5.0 (Windows NT 10.0; Win64; x64) AppleWebKit/537.36 (KHTML, like Gecko) Chrome/131.0.0.0 Safari/537.36","WebKit","Chrome","131.0.0.0","Windows","10.0","null","en-US,en;q=0.9","678c01b6b2da6239b3f5521c","679147d2997803490f072fae","679150ab22caf6371a926e1e","","1092","<img  src='G_1.jpg' height='90'> <img id='selected'  src='G_9.jpg' height='90'> <img id='selected' src='G_5.jpg' height='90'> <img src='G_3.jpg' height='90'> <img src='G_7.jpg' height='90'>","2","Learning example 0",""
"","","","","","html-button-response","129","436478","0.0-34.0","24","1","2025-01-22 20:16:37","6073afb29c8d06c5d8f22ae9f1371ff8","212.32.102.203","Mozilla/5.0 (Windows NT 10.0; Win64; x64) AppleWebKit/537.36 (KHTML, like Gecko) Chrome/131.0.0.0 Safari/537.36","WebKit","Chrome","131.0.0.0","Windows","10.0","null","en-US,en;q=0.9","678c01b6b2da6239b3f5521c","679147d2997803490f072fae","679150ab22caf6371a926e1e","","null","<img  src='G_1.jpg' height='90'> <img   src='G_9.jpg' height='90'> <img  src='G_5.jpg' height='90'> <img src='G_3.jpg' height='90'> <img src='G_7.jpg' height='90'>","null","Learning example 0",""
"","","","","","html-button-response","130","436897","0.0-35.0","24","1","2025-01-22 20:16:37","6073afb29c8d06c5d8f22ae9f1371ff8","212.32.102.203","Mozilla/5.0 (Windows NT 10.0; Win64; x64) AppleWebKit/537.36 (KHTML, like Gecko) Chrome/131.0.0.0 Safari/537.36","WebKit","Chrome","131.0.0.0","Windows","10.0","null","en-US,en;q=0.9","678c01b6b2da6239b3f5521c","679147d2997803490f072fae","679150ab22caf6371a926e1e","","null","<img  src='G_1.jpg' height='90'> <img   src='G_9.jpg' height='90'> <img id='selected'  src='G_5.jpg' height='90'> <img src='G_3.jpg' height='90'> <img src='G_7.jpg' height='90'>","null","Learning example 0",""
"","","","","","html-button-response","131","437101","0.0-36.0","24","1","2025-01-22 20:16:37","6073afb29c8d06c5d8f22ae9f1371ff8","212.32.102.203","Mozilla/5.0 (Windows NT 10.0; Win64; x64) AppleWebKit/537.36 (KHTML, like Gecko) Chrome/131.0.0.0 Safari/537.36","WebKit","Chrome","131.0.0.0","Windows","10.0","null","en-US,en;q=0.9","678c01b6b2da6239b3f5521c","679147d2997803490f072fae","679150ab22caf6371a926e1e","","186","<img  src='G_1.jpg' height='90'> <img   src='G_9.jpg' height='90'> <img id='selected'  src='G_5.jpg' height='90'> <img id='selected' src='G_3.jpg' height='90'> <img src='G_7.jpg' height='90'>","2","Learning example 0",""
"","","","","","html-button-response","132","437416","0.0-37.0","24","1","2025-01-22 20:16:37","6073afb29c8d06c5d8f22ae9f1371ff8","212.32.102.203","Mozilla/5.0 (Windows NT 10.0; Win64; x64) AppleWebKit/537.36 (KHTML, like Gecko) Chrome/131.0.0.0 Safari/537.36","WebKit","Chrome","131.0.0.0","Windows","10.0","null","en-US,en;q=0.9","678c01b6b2da6239b3f5521c","679147d2997803490f072fae","679150ab22caf6371a926e1e","","null","<img  src='G_1.jpg' height='90'> <img   src='G_9.jpg' height='90'> <img id='selected'  src='G_5.jpg' height='90'> <img id='selected' src='G_3.jpg' height='90'> <img src='G_7.jpg' height='90'>","null","Learning example 0",""
"","","","","","html-button-response","133","445121","0.0-38.0-0.0-0.0","24","1","2025-01-22 20:16:37","6073afb29c8d06c5d8f22ae9f1371ff8","212.32.102.203","Mozilla/5.0 (Windows NT 10.0; Win64; x64) AppleWebKit/537.36 (KHTML, like Gecko) Chrome/131.0.0.0 Safari/537.36","WebKit","Chrome","131.0.0.0","Windows","10.0","null","en-US,en;q=0.9","678c01b6b2da6239b3f5521c","679147d2997803490f072fae","679150ab22caf6371a926e1e","","7694","<img  src='G_1.jpg' height='90'> <img   src='G_9.jpg' height='90'> <img id='selected'  src='G_5.jpg' height='90'> <img id='selected' src='G_3.jpg' height='90'> <img src='G_7.jpg' height='90'>","3","Learning example 0",""
"","","","","","html-button-response","134","447905","0.0-38.1-0.1-0.1","24","1","2025-01-22 20:16:37","6073afb29c8d06c5d8f22ae9f1371ff8","212.32.102.203","Mozilla/5.0 (Windows NT 10.0; Win64; x64) AppleWebKit/537.36 (KHTML, like Gecko) Chrome/131.0.0.0 Safari/537.36","WebKit","Chrome","131.0.0.0","Windows","10.0","null","en-US,en;q=0.9","678c01b6b2da6239b3f5521c","679147d2997803490f072fae","679150ab22caf6371a926e1e","","2779","<img  src='G_1.jpg' height='90'> <img   src='G_9.jpg' height='90'> <img id='selected'  src='G_5.jpg' height='90'> <img id='selected' src='G_3.jpg' height='90'> <img src='G_7.jpg' height='90'>","2","Learning example 0",""
"","","","","","html-button-response","135","448112","0.0-39.0","24","1","2025-01-22 20:16:37","6073afb29c8d06c5d8f22ae9f1371ff8","212.32.102.203","Mozilla/5.0 (Windows NT 10.0; Win64; x64) AppleWebKit/537.36 (KHTML, like Gecko) Chrome/131.0.0.0 Safari/537.36","WebKit","Chrome","131.0.0.0","Windows","10.0","null","en-US,en;q=0.9","678c01b6b2da6239b3f5521c","679147d2997803490f072fae","679150ab22caf6371a926e1e","","null","<img  src='G_1.jpg' height='90'> <img   src='G_9.jpg' height='90'> <img   src='G_5.jpg' height='90'> <img  src='G_3.jpg' height='90'> <img src='G_7.jpg' height='90'>","null","Learning example 0",""
"","","","","","html-button-response","136","448534","0.0-40.0","24","1","2025-01-22 20:16:37","6073afb29c8d06c5d8f22ae9f1371ff8","212.32.102.203","Mozilla/5.0 (Windows NT 10.0; Win64; x64) AppleWebKit/537.36 (KHTML, like Gecko) Chrome/131.0.0.0 Safari/537.36","WebKit","Chrome","131.0.0.0","Windows","10.0","null","en-US,en;q=0.9","678c01b6b2da6239b3f5521c","679147d2997803490f072fae","679150ab22caf6371a926e1e","","null","<img  src='G_1.jpg' height='90'> <img   src='G_9.jpg' height='90'> <img   src='G_5.jpg' height='90'> <img id='selected'  src='G_3.jpg' height='90'> <img src='G_7.jpg' height='90'>","null","Learning example 0",""
"","","","","","html-button-response","137","448861","0.0-41.0","24","1","2025-01-22 20:16:37","6073afb29c8d06c5d8f22ae9f1371ff8","212.32.102.203","Mozilla/5.0 (Windows NT 10.0; Win64; x64) AppleWebKit/537.36 (KHTML, like Gecko) Chrome/131.0.0.0 Safari/537.36","WebKit","Chrome","131.0.0.0","Windows","10.0","null","en-US,en;q=0.9","678c01b6b2da6239b3f5521c","679147d2997803490f072fae","679150ab22caf6371a926e1e","","null","<img  src='G_1.jpg' height='90'> <img   src='G_9.jpg' height='90'> <img   src='G_5.jpg' height='90'> <img id='selected'  src='G_3.jpg' height='90'> <img id='selected' src='G_7.jpg' height='90'>","null","Learning example 0",""
"","","","","","html-button-response","138","449191","0.0-42.0","24","1","2025-01-22 20:16:37","6073afb29c8d06c5d8f22ae9f1371ff8","212.32.102.203","Mozilla/5.0 (Windows NT 10.0; Win64; x64) AppleWebKit/537.36 (KHTML, like Gecko) Chrome/131.0.0.0 Safari/537.36","WebKit","Chrome","131.0.0.0","Windows","10.0","null","en-US,en;q=0.9","678c01b6b2da6239b3f5521c","679147d2997803490f072fae","679150ab22caf6371a926e1e","","null","<img  src='G_1.jpg' height='90'> <img   src='G_9.jpg' height='90'> <img   src='G_5.jpg' height='90'> <img id='selected'  src='G_3.jpg' height='90'> <img id='selected' src='G_7.jpg' height='90'>","null","Learning example 0",""
"","","","","","html-button-response","139","450873","0.0-43.0-0.0-0.0","24","1","2025-01-22 20:16:37","6073afb29c8d06c5d8f22ae9f1371ff8","212.32.102.203","Mozilla/5.0 (Windows NT 10.0; Win64; x64) AppleWebKit/537.36 (KHTML, like Gecko) Chrome/131.0.0.0 Safari/537.36","WebKit","Chrome","131.0.0.0","Windows","10.0","null","en-US,en;q=0.9","678c01b6b2da6239b3f5521c","679147d2997803490f072fae","679150ab22caf6371a926e1e","","1671","<img  src='G_1.jpg' height='90'> <img   src='G_9.jpg' height='90'> <img   src='G_5.jpg' height='90'> <img id='selected'  src='G_3.jpg' height='90'> <img id='selected' src='G_7.jpg' height='90'>","4","Learning example 0",""
"","","","","","html-button-response","140","452641","0.0-43.1-0.1-0.1","24","1","2025-01-22 20:16:37","6073afb29c8d06c5d8f22ae9f1371ff8","212.32.102.203","Mozilla/5.0 (Windows NT 10.0; Win64; x64) AppleWebKit/537.36 (KHTML, like Gecko) Chrome/131.0.0.0 Safari/537.36","WebKit","Chrome","131.0.0.0","Windows","10.0","null","en-US,en;q=0.9","678c01b6b2da6239b3f5521c","679147d2997803490f072fae","679150ab22caf6371a926e1e","","1762","<img  src='G_1.jpg' height='90'> <img   src='G_9.jpg' height='90'> <img   src='G_5.jpg' height='90'> <img id='selected'  src='G_3.jpg' height='90'> <img id='selected' src='G_7.jpg' height='90'>","3","Learning example 0",""
"","","","","","html-button-response","141","452852","0.0-44.0","24","1","2025-01-22 20:16:37","6073afb29c8d06c5d8f22ae9f1371ff8","212.32.102.203","Mozilla/5.0 (Windows NT 10.0; Win64; x64) AppleWebKit/537.36 (KHTML, like Gecko) Chrome/131.0.0.0 Safari/537.36","WebKit","Chrome","131.0.0.0","Windows","10.0","null","en-US,en;q=0.9","678c01b6b2da6239b3f5521c","679147d2997803490f072fae","679150ab22caf6371a926e1e","","null","<img  src='G_1.jpg' height='90'> <img   src='G_9.jpg' height='90'> <img   src='G_5.jpg' height='90'> <img   src='G_3.jpg' height='90'> <img  src='G_7.jpg' height='90'>","null","Learning example 0",""
"","","","","","html-keyboard-response","142","456352","0.0-45.0","24","1","2025-01-22 20:16:37","6073afb29c8d06c5d8f22ae9f1371ff8","212.32.102.203","Mozilla/5.0 (Windows NT 10.0; Win64; x64) AppleWebKit/537.36 (KHTML, like Gecko) Chrome/131.0.0.0 Safari/537.36","WebKit","Chrome","131.0.0.0","Windows","10.0","null","en-US,en;q=0.9","678c01b6b2da6239b3f5521c","679147d2997803490f072fae","679150ab22caf6371a926e1e","","3493","[""Final order was 1,2,3,4,5. The initial order was 2,1,3,4,5.<br>It took 1 swaps to sort it correctly with Omgne Sort. <br><br>Press Enter to continue.""]","enter","",""
"","","","","","instructions","143","553441","0.0-46.0","24","1","2025-01-22 20:16:37","6073afb29c8d06c5d8f22ae9f1371ff8","212.32.102.203","Mozilla/5.0 (Windows NT 10.0; Win64; x64) AppleWebKit/537.36 (KHTML, like Gecko) Chrome/131.0.0.0 Safari/537.36","WebKit","Chrome","131.0.0.0","Windows","10.0","null","en-US,en;q=0.9","678c01b6b2da6239b3f5521c","679147d2997803490f072fae","679150ab22caf6371a926e1e","[{""page_index"":0,""viewing_time"":2718},{""page_index"":1,""viewing_time"":17264},{""page_index"":2,""viewing_time"":70395},{""page_index"":3,""viewing_time"":6709}]","97086","","","",""
"","","","","","html-keyboard-response","144","561615","0.0-47.0","24","1","2025-01-22 20:16:37","6073afb29c8d06c5d8f22ae9f1371ff8","212.32.102.203","Mozilla/5.0 (Windows NT 10.0; Win64; x64) AppleWebKit/537.36 (KHTML, like Gecko) Chrome/131.0.0.0 Safari/537.36","WebKit","Chrome","131.0.0.0","Windows","10.0","null","en-US,en;q=0.9","678c01b6b2da6239b3f5521c","679147d2997803490f072fae","679150ab22caf6371a926e1e","","8171","[""Example 2<br><br>You will watch Omnge Sort in action. Try to identify any patterns in the comparisons made by this method. <br><br>Press Enter to continue.""]","enter","",""
"","","","","","html-keyboard-response","145","562123","0.0-48.0","24","1","2025-01-22 20:16:37","6073afb29c8d06c5d8f22ae9f1371ff8","212.32.102.203","Mozilla/5.0 (Windows NT 10.0; Win64; x64) AppleWebKit/537.36 (KHTML, like Gecko) Chrome/131.0.0.0 Safari/537.36","WebKit","Chrome","131.0.0.0","Windows","10.0","null","en-US,en;q=0.9","678c01b6b2da6239b3f5521c","679147d2997803490f072fae","679150ab22caf6371a926e1e","","null","<img id='selected' src='G_9.jpg' height='90'> <img src='G_1.jpg' height='90'> <img src='G_5.jpg' height='90'> <img src='G_3.jpg' height='90'> <img src='G_7.jpg' height='90'>","null","Animation1",""
"","","","","","html-keyboard-response","146","562652","0.0-49.0","24","1","2025-01-22 20:16:37","6073afb29c8d06c5d8f22ae9f1371ff8","212.32.102.203","Mozilla/5.0 (Windows NT 10.0; Win64; x64) AppleWebKit/537.36 (KHTML, like Gecko) Chrome/131.0.0.0 Safari/537.36","WebKit","Chrome","131.0.0.0","Windows","10.0","null","en-US,en;q=0.9","678c01b6b2da6239b3f5521c","679147d2997803490f072fae","679150ab22caf6371a926e1e","","null","<img id='selected' src='G_9.jpg' height='90'> <img id='selected' src='G_1.jpg' height='90'> <img src='G_5.jpg' height='90'> <img src='G_3.jpg' height='90'> <img src='G_7.jpg' height='90'>","null","Animation1",""
"","","","","","html-keyboard-response","147","563181","0.0-50.0","24","1","2025-01-22 20:16:37","6073afb29c8d06c5d8f22ae9f1371ff8","212.32.102.203","Mozilla/5.0 (Windows NT 10.0; Win64; x64) AppleWebKit/537.36 (KHTML, like Gecko) Chrome/131.0.0.0 Safari/537.36","WebKit","Chrome","131.0.0.0","Windows","10.0","null","en-US,en;q=0.9","678c01b6b2da6239b3f5521c","679147d2997803490f072fae","679150ab22caf6371a926e1e","","null","<img id='swapped' src='G_1.jpg' height='90'> <img id='swapped' src='G_9.jpg' height='90'> <img src='G_5.jpg' height='90'> <img src='G_3.jpg' height='90'> <img src='G_7.jpg' height='90'>","null","Animation1",""
"","","","","","html-keyboard-response","148","563496","0.0-51.0","24","1","2025-01-22 20:16:37","6073afb29c8d06c5d8f22ae9f1371ff8","212.32.102.203","Mozilla/5.0 (Windows NT 10.0; Win64; x64) AppleWebKit/537.36 (KHTML, like Gecko) Chrome/131.0.0.0 Safari/537.36","WebKit","Chrome","131.0.0.0","Windows","10.0","null","en-US,en;q=0.9","678c01b6b2da6239b3f5521c","679147d2997803490f072fae","679150ab22caf6371a926e1e","","null","<img  src='G_1.jpg' height='90'> <img  src='G_9.jpg' height='90'> <img src='G_5.jpg' height='90'> <img src='G_3.jpg' height='90'> <img src='G_7.jpg' height='90'>","null","Animation1",""
"","","","","","html-keyboard-response","149","564009","0.0-52.0","24","1","2025-01-22 20:16:37","6073afb29c8d06c5d8f22ae9f1371ff8","212.32.102.203","Mozilla/5.0 (Windows NT 10.0; Win64; x64) AppleWebKit/537.36 (KHTML, like Gecko) Chrome/131.0.0.0 Safari/537.36","WebKit","Chrome","131.0.0.0","Windows","10.0","null","en-US,en;q=0.9","678c01b6b2da6239b3f5521c","679147d2997803490f072fae","679150ab22caf6371a926e1e","","null","<img  src='G_1.jpg' height='90'> <img id='selected'  src='G_9.jpg' height='90'> <img src='G_5.jpg' height='90'> <img src='G_3.jpg' height='90'> <img src='G_7.jpg' height='90'>","null","Animation1",""
"","","","","","html-keyboard-response","150","564526","0.0-53.0","24","1","2025-01-22 20:16:37","6073afb29c8d06c5d8f22ae9f1371ff8","212.32.102.203","Mozilla/5.0 (Windows NT 10.0; Win64; x64) AppleWebKit/537.36 (KHTML, like Gecko) Chrome/131.0.0.0 Safari/537.36","WebKit","Chrome","131.0.0.0","Windows","10.0","null","en-US,en;q=0.9","678c01b6b2da6239b3f5521c","679147d2997803490f072fae","679150ab22caf6371a926e1e","","null","<img  src='G_1.jpg' height='90'> <img id='selected'  src='G_9.jpg' height='90'> <img id='selected' src='G_5.jpg' height='90'> <img src='G_3.jpg' height='90'> <img src='G_7.jpg' height='90'>","null","Animation1",""
"","","","","","html-keyboard-response","151","565044","0.0-54.0","24","1","2025-01-22 20:16:37","6073afb29c8d06c5d8f22ae9f1371ff8","212.32.102.203","Mozilla/5.0 (Windows NT 10.0; Win64; x64) AppleWebKit/537.36 (KHTML, like Gecko) Chrome/131.0.0.0 Safari/537.36","WebKit","Chrome","131.0.0.0","Windows","10.0","null","en-US,en;q=0.9","678c01b6b2da6239b3f5521c","679147d2997803490f072fae","679150ab22caf6371a926e1e","","null","<img  src='G_1.jpg' height='90'> <img id='swapped' src='G_5.jpg' height='90'> <img id='swapped'  src='G_9.jpg' height='90'> <img src='G_3.jpg' height='90'> <img src='G_7.jpg' height='90'>","null","Animation1",""
"","","","","","html-keyboard-response","152","565357","0.0-55.0","24","1","2025-01-22 20:16:37","6073afb29c8d06c5d8f22ae9f1371ff8","212.32.102.203","Mozilla/5.0 (Windows NT 10.0; Win64; x64) AppleWebKit/537.36 (KHTML, like Gecko) Chrome/131.0.0.0 Safari/537.36","WebKit","Chrome","131.0.0.0","Windows","10.0","null","en-US,en;q=0.9","678c01b6b2da6239b3f5521c","679147d2997803490f072fae","679150ab22caf6371a926e1e","","null","<img  src='G_1.jpg' height='90'> <img  src='G_5.jpg' height='90'> <img   src='G_9.jpg' height='90'> <img src='G_3.jpg' height='90'> <img src='G_7.jpg' height='90'>","null","Animation1",""
"","","","","","html-keyboard-response","153","565888","0.0-56.0","24","1","2025-01-22 20:16:37","6073afb29c8d06c5d8f22ae9f1371ff8","212.32.102.203","Mozilla/5.0 (Windows NT 10.0; Win64; x64) AppleWebKit/537.36 (KHTML, like Gecko) Chrome/131.0.0.0 Safari/537.36","WebKit","Chrome","131.0.0.0","Windows","10.0","null","en-US,en;q=0.9","678c01b6b2da6239b3f5521c","679147d2997803490f072fae","679150ab22caf6371a926e1e","","null","<img id='selected'  src='G_1.jpg' height='90'> <img  src='G_5.jpg' height='90'> <img   src='G_9.jpg' height='90'> <img src='G_3.jpg' height='90'> <img src='G_7.jpg' height='90'>","null","Animation1",""
"","","","","","html-keyboard-response","154","566404","0.0-57.0","24","1","2025-01-22 20:16:37","6073afb29c8d06c5d8f22ae9f1371ff8","212.32.102.203","Mozilla/5.0 (Windows NT 10.0; Win64; x64) AppleWebKit/537.36 (KHTML, like Gecko) Chrome/131.0.0.0 Safari/537.36","WebKit","Chrome","131.0.0.0","Windows","10.0","null","en-US,en;q=0.9","678c01b6b2da6239b3f5521c","679147d2997803490f072fae","679150ab22caf6371a926e1e","","null","<img id='selected'  src='G_1.jpg' height='90'> <img id='selected'  src='G_5.jpg' height='90'> <img   src='G_9.jpg' height='90'> <img src='G_3.jpg' height='90'> <img src='G_7.jpg' height='90'>","null","Animation1",""
"","","","","","html-keyboard-response","155","566913","0.0-58.0","24","1","2025-01-22 20:16:37","6073afb29c8d06c5d8f22ae9f1371ff8","212.32.102.203","Mozilla/5.0 (Windows NT 10.0; Win64; x64) AppleWebKit/537.36 (KHTML, like Gecko) Chrome/131.0.0.0 Safari/537.36","WebKit","Chrome","131.0.0.0","Windows","10.0","null","en-US,en;q=0.9","678c01b6b2da6239b3f5521c","679147d2997803490f072fae","679150ab22caf6371a926e1e","","null","<img id='swapped'  src='G_5.jpg' height='90'> <img id='swapped'  src='G_1.jpg' height='90'> <img   src='G_9.jpg' height='90'> <img src='G_3.jpg' height='90'> <img src='G_7.jpg' height='90'>","null","Animation1",""
"","","","","","html-keyboard-response","156","567234","0.0-59.0","24","1","2025-01-22 20:16:37","6073afb29c8d06c5d8f22ae9f1371ff8","212.32.102.203","Mozilla/5.0 (Windows NT 10.0; Win64; x64) AppleWebKit/537.36 (KHTML, like Gecko) Chrome/131.0.0.0 Safari/537.36","WebKit","Chrome","131.0.0.0","Windows","10.0","null","en-US,en;q=0.9","678c01b6b2da6239b3f5521c","679147d2997803490f072fae","679150ab22caf6371a926e1e","","null","<img   src='G_5.jpg' height='90'> <img   src='G_1.jpg' height='90'> <img   src='G_9.jpg' height='90'> <img src='G_3.jpg' height='90'> <img src='G_7.jpg' height='90'>","null","Animation1",""
"","","","","","html-keyboard-response","157","567765","0.0-60.0","24","1","2025-01-22 20:16:37","6073afb29c8d06c5d8f22ae9f1371ff8","212.32.102.203","Mozilla/5.0 (Windows NT 10.0; Win64; x64) AppleWebKit/537.36 (KHTML, like Gecko) Chrome/131.0.0.0 Safari/537.36","WebKit","Chrome","131.0.0.0","Windows","10.0","null","en-US,en;q=0.9","678c01b6b2da6239b3f5521c","679147d2997803490f072fae","679150ab22caf6371a926e1e","","null","<img   src='G_5.jpg' height='90'> <img   src='G_1.jpg' height='90'> <img id='selected'   src='G_9.jpg' height='90'> <img src='G_3.jpg' height='90'> <img src='G_7.jpg' height='90'>","null","Animation1",""
"","","","","","html-keyboard-response","158","568296","0.0-61.0","24","1","2025-01-22 20:16:37","6073afb29c8d06c5d8f22ae9f1371ff8","212.32.102.203","Mozilla/5.0 (Windows NT 10.0; Win64; x64) AppleWebKit/537.36 (KHTML, like Gecko) Chrome/131.0.0.0 Safari/537.36","WebKit","Chrome","131.0.0.0","Windows","10.0","null","en-US,en;q=0.9","678c01b6b2da6239b3f5521c","679147d2997803490f072fae","679150ab22caf6371a926e1e","","null","<img   src='G_5.jpg' height='90'> <img   src='G_1.jpg' height='90'> <img id='selected'   src='G_9.jpg' height='90'> <img id='selected' src='G_3.jpg' height='90'> <img src='G_7.jpg' height='90'>","null","Animation1",""
"","","","","","html-keyboard-response","159","568815","0.0-62.0","24","1","2025-01-22 20:16:37","6073afb29c8d06c5d8f22ae9f1371ff8","212.32.102.203","Mozilla/5.0 (Windows NT 10.0; Win64; x64) AppleWebKit/537.36 (KHTML, like Gecko) Chrome/131.0.0.0 Safari/537.36","WebKit","Chrome","131.0.0.0","Windows","10.0","null","en-US,en;q=0.9","678c01b6b2da6239b3f5521c","679147d2997803490f072fae","679150ab22caf6371a926e1e","","null","<img   src='G_5.jpg' height='90'> <img   src='G_1.jpg' height='90'> <img id='swapped' src='G_3.jpg' height='90'> <img id='swapped'   src='G_9.jpg' height='90'> <img src='G_7.jpg' height='90'>","null","Animation1",""
"","","","","","html-keyboard-response","160","569127","0.0-63.0","24","1","2025-01-22 20:16:37","6073afb29c8d06c5d8f22ae9f1371ff8","212.32.102.203","Mozilla/5.0 (Windows NT 10.0; Win64; x64) AppleWebKit/537.36 (KHTML, like Gecko) Chrome/131.0.0.0 Safari/537.36","WebKit","Chrome","131.0.0.0","Windows","10.0","null","en-US,en;q=0.9","678c01b6b2da6239b3f5521c","679147d2997803490f072fae","679150ab22caf6371a926e1e","","null","<img   src='G_5.jpg' height='90'> <img   src='G_1.jpg' height='90'> <img  src='G_3.jpg' height='90'> <img    src='G_9.jpg' height='90'> <img src='G_7.jpg' height='90'>","null","Animation1",""
"","","","","","html-keyboard-response","161","569641","0.0-64.0","24","1","2025-01-22 20:16:37","6073afb29c8d06c5d8f22ae9f1371ff8","212.32.102.203","Mozilla/5.0 (Windows NT 10.0; Win64; x64) AppleWebKit/537.36 (KHTML, like Gecko) Chrome/131.0.0.0 Safari/537.36","WebKit","Chrome","131.0.0.0","Windows","10.0","null","en-US,en;q=0.9","678c01b6b2da6239b3f5521c","679147d2997803490f072fae","679150ab22caf6371a926e1e","","null","<img   src='G_5.jpg' height='90'> <img id='selected'   src='G_1.jpg' height='90'> <img  src='G_3.jpg' height='90'> <img    src='G_9.jpg' height='90'> <img src='G_7.jpg' height='90'>","null","Animation1",""
"","","","","","html-keyboard-response","162","570169","0.0-65.0","24","1","2025-01-22 20:16:37","6073afb29c8d06c5d8f22ae9f1371ff8","212.32.102.203","Mozilla/5.0 (Windows NT 10.0; Win64; x64) AppleWebKit/537.36 (KHTML, like Gecko) Chrome/131.0.0.0 Safari/537.36","WebKit","Chrome","131.0.0.0","Windows","10.0","null","en-US,en;q=0.9","678c01b6b2da6239b3f5521c","679147d2997803490f072fae","679150ab22caf6371a926e1e","","null","<img   src='G_5.jpg' height='90'> <img id='selected'   src='G_1.jpg' height='90'> <img id='selected'  src='G_3.jpg' height='90'> <img    src='G_9.jpg' height='90'> <img src='G_7.jpg' height='90'>","null","Animation1",""
"","","","","","html-keyboard-response","163","570678","0.0-66.0","24","1","2025-01-22 20:16:37","6073afb29c8d06c5d8f22ae9f1371ff8","212.32.102.203","Mozilla/5.0 (Windows NT 10.0; Win64; x64) AppleWebKit/537.36 (KHTML, like Gecko) Chrome/131.0.0.0 Safari/537.36","WebKit","Chrome","131.0.0.0","Windows","10.0","null","en-US,en;q=0.9","678c01b6b2da6239b3f5521c","679147d2997803490f072fae","679150ab22caf6371a926e1e","","null","<img   src='G_5.jpg' height='90'> <img id='swapped'  src='G_3.jpg' height='90'> <img id='swapped'   src='G_1.jpg' height='90'> <img    src='G_9.jpg' height='90'> <img src='G_7.jpg' height='90'>","null","Animation1",""
"","","","","","html-keyboard-response","164","570990","0.0-67.0","24","1","2025-01-22 20:16:37","6073afb29c8d06c5d8f22ae9f1371ff8","212.32.102.203","Mozilla/5.0 (Windows NT 10.0; Win64; x64) AppleWebKit/537.36 (KHTML, like Gecko) Chrome/131.0.0.0 Safari/537.36","WebKit","Chrome","131.0.0.0","Windows","10.0","null","en-US,en;q=0.9","678c01b6b2da6239b3f5521c","679147d2997803490f072fae","679150ab22caf6371a926e1e","","null","<img   src='G_5.jpg' height='90'> <img   src='G_3.jpg' height='90'> <img    src='G_1.jpg' height='90'> <img    src='G_9.jpg' height='90'> <img src='G_7.jpg' height='90'>","null","Animation1",""
"","","","","","html-keyboard-response","165","571514","0.0-68.0","24","1","2025-01-22 20:16:37","6073afb29c8d06c5d8f22ae9f1371ff8","212.32.102.203","Mozilla/5.0 (Windows NT 10.0; Win64; x64) AppleWebKit/537.36 (KHTML, like Gecko) Chrome/131.0.0.0 Safari/537.36","WebKit","Chrome","131.0.0.0","Windows","10.0","null","en-US,en;q=0.9","678c01b6b2da6239b3f5521c","679147d2997803490f072fae","679150ab22caf6371a926e1e","","null","<img id='selected'   src='G_5.jpg' height='90'> <img   src='G_3.jpg' height='90'> <img    src='G_1.jpg' height='90'> <img    src='G_9.jpg' height='90'> <img src='G_7.jpg' height='90'>","null","Animation1",""
"","","","","","html-keyboard-response","166","572031","0.0-69.0","24","1","2025-01-22 20:16:37","6073afb29c8d06c5d8f22ae9f1371ff8","212.32.102.203","Mozilla/5.0 (Windows NT 10.0; Win64; x64) AppleWebKit/537.36 (KHTML, like Gecko) Chrome/131.0.0.0 Safari/537.36","WebKit","Chrome","131.0.0.0","Windows","10.0","null","en-US,en;q=0.9","678c01b6b2da6239b3f5521c","679147d2997803490f072fae","679150ab22caf6371a926e1e","","null","<img id='selected'   src='G_5.jpg' height='90'> <img id='selected'   src='G_3.jpg' height='90'> <img    src='G_1.jpg' height='90'> <img    src='G_9.jpg' height='90'> <img src='G_7.jpg' height='90'>","null","Animation1",""
"","","","","","html-keyboard-response","167","572547","0.0-70.0","24","1","2025-01-22 20:16:37","6073afb29c8d06c5d8f22ae9f1371ff8","212.32.102.203","Mozilla/5.0 (Windows NT 10.0; Win64; x64) AppleWebKit/537.36 (KHTML, like Gecko) Chrome/131.0.0.0 Safari/537.36","WebKit","Chrome","131.0.0.0","Windows","10.0","null","en-US,en;q=0.9","678c01b6b2da6239b3f5521c","679147d2997803490f072fae","679150ab22caf6371a926e1e","","null","<img id='swapped'   src='G_3.jpg' height='90'> <img id='swapped'   src='G_5.jpg' height='90'> <img    src='G_1.jpg' height='90'> <img    src='G_9.jpg' height='90'> <img src='G_7.jpg' height='90'>","null","Animation1",""
"","","","","","html-keyboard-response","168","572868","0.0-71.0","24","1","2025-01-22 20:16:37","6073afb29c8d06c5d8f22ae9f1371ff8","212.32.102.203","Mozilla/5.0 (Windows NT 10.0; Win64; x64) AppleWebKit/537.36 (KHTML, like Gecko) Chrome/131.0.0.0 Safari/537.36","WebKit","Chrome","131.0.0.0","Windows","10.0","null","en-US,en;q=0.9","678c01b6b2da6239b3f5521c","679147d2997803490f072fae","679150ab22caf6371a926e1e","","null","<img    src='G_3.jpg' height='90'> <img    src='G_5.jpg' height='90'> <img    src='G_1.jpg' height='90'> <img    src='G_9.jpg' height='90'> <img src='G_7.jpg' height='90'>","null","Animation1",""
"","","","","","html-keyboard-response","169","573387","0.0-72.0","24","1","2025-01-22 20:16:37","6073afb29c8d06c5d8f22ae9f1371ff8","212.32.102.203","Mozilla/5.0 (Windows NT 10.0; Win64; x64) AppleWebKit/537.36 (KHTML, like Gecko) Chrome/131.0.0.0 Safari/537.36","WebKit","Chrome","131.0.0.0","Windows","10.0","null","en-US,en;q=0.9","678c01b6b2da6239b3f5521c","679147d2997803490f072fae","679150ab22caf6371a926e1e","","null","<img    src='G_3.jpg' height='90'> <img    src='G_5.jpg' height='90'> <img    src='G_1.jpg' height='90'> <img id='selected'    src='G_9.jpg' height='90'> <img src='G_7.jpg' height='90'>","null","Animation1",""
"","","","","","html-keyboard-response","170","573906","0.0-73.0","24","1","2025-01-22 20:16:37","6073afb29c8d06c5d8f22ae9f1371ff8","212.32.102.203","Mozilla/5.0 (Windows NT 10.0; Win64; x64) AppleWebKit/537.36 (KHTML, like Gecko) Chrome/131.0.0.0 Safari/537.36","WebKit","Chrome","131.0.0.0","Windows","10.0","null","en-US,en;q=0.9","678c01b6b2da6239b3f5521c","679147d2997803490f072fae","679150ab22caf6371a926e1e","","null","<img    src='G_3.jpg' height='90'> <img    src='G_5.jpg' height='90'> <img    src='G_1.jpg' height='90'> <img id='selected'    src='G_9.jpg' height='90'> <img id='selected' src='G_7.jpg' height='90'>","null","Animation1",""
"","","","","","html-keyboard-response","171","574425","0.0-74.0","24","1","2025-01-22 20:16:37","6073afb29c8d06c5d8f22ae9f1371ff8","212.32.102.203","Mozilla/5.0 (Windows NT 10.0; Win64; x64) AppleWebKit/537.36 (KHTML, like Gecko) Chrome/131.0.0.0 Safari/537.36","WebKit","Chrome","131.0.0.0","Windows","10.0","null","en-US,en;q=0.9","678c01b6b2da6239b3f5521c","679147d2997803490f072fae","679150ab22caf6371a926e1e","","null","<img    src='G_3.jpg' height='90'> <img    src='G_5.jpg' height='90'> <img    src='G_1.jpg' height='90'> <img id='swapped' src='G_7.jpg' height='90'> <img id='swapped'    src='G_9.jpg' height='90'>","null","Animation1",""
"","","","","","html-keyboard-response","172","574753","0.0-75.0","24","1","2025-01-22 20:16:37","6073afb29c8d06c5d8f22ae9f1371ff8","212.32.102.203","Mozilla/5.0 (Windows NT 10.0; Win64; x64) AppleWebKit/537.36 (KHTML, like Gecko) Chrome/131.0.0.0 Safari/537.36","WebKit","Chrome","131.0.0.0","Windows","10.0","null","en-US,en;q=0.9","678c01b6b2da6239b3f5521c","679147d2997803490f072fae","679150ab22caf6371a926e1e","","null","<img    src='G_3.jpg' height='90'> <img    src='G_5.jpg' height='90'> <img    src='G_1.jpg' height='90'> <img  src='G_7.jpg' height='90'> <img     src='G_9.jpg' height='90'>","null","Animation1",""
"","","","","","html-keyboard-response","173","575284","0.0-76.0","24","1","2025-01-22 20:16:37","6073afb29c8d06c5d8f22ae9f1371ff8","212.32.102.203","Mozilla/5.0 (Windows NT 10.0; Win64; x64) AppleWebKit/537.36 (KHTML, like Gecko) Chrome/131.0.0.0 Safari/537.36","WebKit","Chrome","131.0.0.0","Windows","10.0","null","en-US,en;q=0.9","678c01b6b2da6239b3f5521c","679147d2997803490f072fae","679150ab22caf6371a926e1e","","null","<img    src='G_3.jpg' height='90'> <img    src='G_5.jpg' height='90'> <img id='selected'    src='G_1.jpg' height='90'> <img  src='G_7.jpg' height='90'> <img     src='G_9.jpg' height='90'>","null","Animation1",""
"","","","","","html-keyboard-response","174","575816","0.0-77.0","24","1","2025-01-22 20:16:37","6073afb29c8d06c5d8f22ae9f1371ff8","212.32.102.203","Mozilla/5.0 (Windows NT 10.0; Win64; x64) AppleWebKit/537.36 (KHTML, like Gecko) Chrome/131.0.0.0 Safari/537.36","WebKit","Chrome","131.0.0.0","Windows","10.0","null","en-US,en;q=0.9","678c01b6b2da6239b3f5521c","679147d2997803490f072fae","679150ab22caf6371a926e1e","","null","<img    src='G_3.jpg' height='90'> <img    src='G_5.jpg' height='90'> <img id='selected'    src='G_1.jpg' height='90'> <img id='selected'  src='G_7.jpg' height='90'> <img     src='G_9.jpg' height='90'>","null","Animation1",""
"","","","","","html-keyboard-response","175","576331","0.0-78.0","24","1","2025-01-22 20:16:37","6073afb29c8d06c5d8f22ae9f1371ff8","212.32.102.203","Mozilla/5.0 (Windows NT 10.0; Win64; x64) AppleWebKit/537.36 (KHTML, like Gecko) Chrome/131.0.0.0 Safari/537.36","WebKit","Chrome","131.0.0.0","Windows","10.0","null","en-US,en;q=0.9","678c01b6b2da6239b3f5521c","679147d2997803490f072fae","679150ab22caf6371a926e1e","","null","<img    src='G_3.jpg' height='90'> <img    src='G_5.jpg' height='90'> <img id='swapped'  src='G_7.jpg' height='90'> <img id='swapped'    src='G_1.jpg' height='90'> <img     src='G_9.jpg' height='90'>","null","Animation1",""
"","","","","","html-keyboard-response","176","576646","0.0-79.0","24","1","2025-01-22 20:16:37","6073afb29c8d06c5d8f22ae9f1371ff8","212.32.102.203","Mozilla/5.0 (Windows NT 10.0; Win64; x64) AppleWebKit/537.36 (KHTML, like Gecko) Chrome/131.0.0.0 Safari/537.36","WebKit","Chrome","131.0.0.0","Windows","10.0","null","en-US,en;q=0.9","678c01b6b2da6239b3f5521c","679147d2997803490f072fae","679150ab22caf6371a926e1e","","null","<img    src='G_3.jpg' height='90'> <img    src='G_5.jpg' height='90'> <img   src='G_7.jpg' height='90'> <img     src='G_1.jpg' height='90'> <img     src='G_9.jpg' height='90'>","null","Animation1",""
"","","","","","html-keyboard-response","177","577163","0.0-80.0","24","1","2025-01-22 20:16:37","6073afb29c8d06c5d8f22ae9f1371ff8","212.32.102.203","Mozilla/5.0 (Windows NT 10.0; Win64; x64) AppleWebKit/537.36 (KHTML, like Gecko) Chrome/131.0.0.0 Safari/537.36","WebKit","Chrome","131.0.0.0","Windows","10.0","null","en-US,en;q=0.9","678c01b6b2da6239b3f5521c","679147d2997803490f072fae","679150ab22caf6371a926e1e","","null","<img    src='G_3.jpg' height='90'> <img id='selected'    src='G_5.jpg' height='90'> <img   src='G_7.jpg' height='90'> <img     src='G_1.jpg' height='90'> <img     src='G_9.jpg' height='90'>","null","Animation1",""
"","","","","","html-keyboard-response","178","577680","0.0-81.0","24","1","2025-01-22 20:16:37","6073afb29c8d06c5d8f22ae9f1371ff8","212.32.102.203","Mozilla/5.0 (Windows NT 10.0; Win64; x64) AppleWebKit/537.36 (KHTML, like Gecko) Chrome/131.0.0.0 Safari/537.36","WebKit","Chrome","131.0.0.0","Windows","10.0","null","en-US,en;q=0.9","678c01b6b2da6239b3f5521c","679147d2997803490f072fae","679150ab22caf6371a926e1e","","null","<img    src='G_3.jpg' height='90'> <img id='selected'    src='G_5.jpg' height='90'> <img id='selected'   src='G_7.jpg' height='90'> <img     src='G_1.jpg' height='90'> <img     src='G_9.jpg' height='90'>","null","Animation1",""
"","","","","","html-keyboard-response","179","578196","0.0-82.0","24","1","2025-01-22 20:16:37","6073afb29c8d06c5d8f22ae9f1371ff8","212.32.102.203","Mozilla/5.0 (Windows NT 10.0; Win64; x64) AppleWebKit/537.36 (KHTML, like Gecko) Chrome/131.0.0.0 Safari/537.36","WebKit","Chrome","131.0.0.0","Windows","10.0","null","en-US,en;q=0.9","678c01b6b2da6239b3f5521c","679147d2997803490f072fae","679150ab22caf6371a926e1e","","null","<img    src='G_3.jpg' height='90'> <img id='swapped'   src='G_7.jpg' height='90'> <img id='swapped'    src='G_5.jpg' height='90'> <img     src='G_1.jpg' height='90'> <img     src='G_9.jpg' height='90'>","null","Animation1",""
"","","","","","html-keyboard-response","180","578514","0.0-83.0","24","1","2025-01-22 20:16:37","6073afb29c8d06c5d8f22ae9f1371ff8","212.32.102.203","Mozilla/5.0 (Windows NT 10.0; Win64; x64) AppleWebKit/537.36 (KHTML, like Gecko) Chrome/131.0.0.0 Safari/537.36","WebKit","Chrome","131.0.0.0","Windows","10.0","null","en-US,en;q=0.9","678c01b6b2da6239b3f5521c","679147d2997803490f072fae","679150ab22caf6371a926e1e","","null","<img    src='G_3.jpg' height='90'> <img    src='G_7.jpg' height='90'> <img     src='G_5.jpg' height='90'> <img     src='G_1.jpg' height='90'> <img     src='G_9.jpg' height='90'>","null","Animation1",""
