"success","timeout","failed_images","failed_audio","failed_video","trial_type","trial_index","time_elapsed","internal_node_id","run_id","condition","recorded_at","source_code_version","ip","user_agent","device","browser","browser_version","platform","platform_version","referer","accept_language","PROLIFIC_PID","STUDY_ID","SESSION_ID","view_history","rt","stimulus","response","phase","question_order"
"true","false","[]","[]","[]","preload","0","2566","0.0-0.0","25","1","2025-01-22 20:19:54","6073afb29c8d06c5d8f22ae9f1371ff8","107.180.176.71","Mozilla/5.0 (Windows NT 10.0; Win64; x64; rv:134.0) Gecko/20100101 Firefox/134.0","","Firefox","134.0","Windows","10.0","https://app.prolific.com/","en-US,en;q=0.5","6788d757838ec1fd4189dc63","679147d2997803490f072fae","679152da5a9877d2deb3f842","","","","","",""
"","","","","","instructions","1","161633","0.0-1.0","25","1","2025-01-22 20:19:54","6073afb29c8d06c5d8f22ae9f1371ff8","107.180.176.71","Mozilla/5.0 (Windows NT 10.0; Win64; x64; rv:134.0) Gecko/20100101 Firefox/134.0","","Firefox","134.0","Windows","10.0","https://app.prolific.com/","en-US,en;q=0.5","6788d757838ec1fd4189dc63","679147d2997803490f072fae","679152da5a9877d2deb3f842","[{""page_index"":0,""viewing_time"":159059}]","159060","","","",""
"","","","","","html-keyboard-response","2","162152","0.0-2.0","25","1","2025-01-22 20:19:54","6073afb29c8d06c5d8f22ae9f1371ff8","107.180.176.71","Mozilla/5.0 (Windows NT 10.0; Win64; x64; rv:134.0) Gecko/20100101 Firefox/134.0","","Firefox","134.0","Windows","10.0","https://app.prolific.com/","en-US,en;q=0.5","6788d757838ec1fd4189dc63","679147d2997803490f072fae","679152da5a9877d2deb3f842","","null","<p> + <p/>","null","",""
"","","","","","instructions","3","259007","0.0-3.0","25","1","2025-01-22 20:19:54","6073afb29c8d06c5d8f22ae9f1371ff8","107.180.176.71","Mozilla/5.0 (Windows NT 10.0; Win64; x64; rv:134.0) Gecko/20100101 Firefox/134.0","","Firefox","134.0","Windows","10.0","https://app.prolific.com/","en-US,en;q=0.5","6788d757838ec1fd4189dc63","679147d2997803490f072fae","679152da5a9877d2deb3f842","[{""page_index"":0,""viewing_time"":2156},{""page_index"":1,""viewing_time"":37442},{""page_index"":2,""viewing_time"":24656},{""page_index"":3,""viewing_time"":3047},{""page_index"":4,""viewing_time"":29546}]","96847","","","",""
"","","","","","html-button-response","4","324726","0.0-4.0-0.0-0.0","25","1","2025-01-22 20:19:54","6073afb29c8d06c5d8f22ae9f1371ff8","107.180.176.71","Mozilla/5.0 (Windows NT 10.0; Win64; x64; rv:134.0) Gecko/20100101 Firefox/134.0","","Firefox","134.0","Windows","10.0","https://app.prolific.com/","en-US,en;q=0.5","6788d757838ec1fd4189dc63","679147d2997803490f072fae","679152da5a9877d2deb3f842","","65716","","3","Intro Trial",""
"","","","","","html-button-response","5","326325","0.0-4.1-0.1-0.1","25","1","2025-01-22 20:19:54","6073afb29c8d06c5d8f22ae9f1371ff8","107.180.176.71","Mozilla/5.0 (Windows NT 10.0; Win64; x64; rv:134.0) Gecko/20100101 Firefox/134.0","","Firefox","134.0","Windows","10.0","https://app.prolific.com/","en-US,en;q=0.5","6788d757838ec1fd4189dc63","679147d2997803490f072fae","679152da5a9877d2deb3f842","","1581","","1","Intro Trial",""
"","","","","","html-button-response","6","327573","0.0-4.2-0.2-0.2","25","1","2025-01-22 20:19:54","6073afb29c8d06c5d8f22ae9f1371ff8","107.180.176.71","Mozilla/5.0 (Windows NT 10.0; Win64; x64; rv:134.0) Gecko/20100101 Firefox/134.0","","Firefox","134.0","Windows","10.0","https://app.prolific.com/","en-US,en;q=0.5","6788d757838ec1fd4189dc63","679147d2997803490f072fae","679152da5a9877d2deb3f842","","1238","","3","Intro Trial",""
"","","","","","html-button-response","7","329080","0.0-4.3-0.3-0.3","25","1","2025-01-22 20:19:54","6073afb29c8d06c5d8f22ae9f1371ff8","107.180.176.71","Mozilla/5.0 (Windows NT 10.0; Win64; x64; rv:134.0) Gecko/20100101 Firefox/134.0","","Firefox","134.0","Windows","10.0","https://app.prolific.com/","en-US,en;q=0.5","6788d757838ec1fd4189dc63","679147d2997803490f072fae","679152da5a9877d2deb3f842","","1502","","2","Intro Trial",""
"","","","","","html-button-response","8","329961","0.0-4.4-0.4-0.4","25","1","2025-01-22 20:19:54","6073afb29c8d06c5d8f22ae9f1371ff8","107.180.176.71","Mozilla/5.0 (Windows NT 10.0; Win64; x64; rv:134.0) Gecko/20100101 Firefox/134.0","","Firefox","134.0","Windows","10.0","https://app.prolific.com/","en-US,en;q=0.5","6788d757838ec1fd4189dc63","679147d2997803490f072fae","679152da5a9877d2deb3f842","","870","","3","Intro Trial",""
"","","","","","html-button-response","9","331173","0.0-4.5-0.5-0.5","25","1","2025-01-22 20:19:54","6073afb29c8d06c5d8f22ae9f1371ff8","107.180.176.71","Mozilla/5.0 (Windows NT 10.0; Win64; x64; rv:134.0) Gecko/20100101 Firefox/134.0","","Firefox","134.0","Windows","10.0","https://app.prolific.com/","en-US,en;q=0.5","6788d757838ec1fd4189dc63","679147d2997803490f072fae","679152da5a9877d2deb3f842","","1202","","0","Intro Trial",""
"","","","","","html-button-response","10","332434","0.0-4.6-0.6-0.6","25","1","2025-01-22 20:19:54","6073afb29c8d06c5d8f22ae9f1371ff8","107.180.176.71","Mozilla/5.0 (Windows NT 10.0; Win64; x64; rv:134.0) Gecko/20100101 Firefox/134.0","","Firefox","134.0","Windows","10.0","https://app.prolific.com/","en-US,en;q=0.5","6788d757838ec1fd4189dc63","679147d2997803490f072fae","679152da5a9877d2deb3f842","","1259","","1","Intro Trial",""
"","","","","","html-button-response","11","333190","0.0-4.7-0.7-0.7","25","1","2025-01-22 20:19:54","6073afb29c8d06c5d8f22ae9f1371ff8","107.180.176.71","Mozilla/5.0 (Windows NT 10.0; Win64; x64; rv:134.0) Gecko/20100101 Firefox/134.0","","Firefox","134.0","Windows","10.0","https://app.prolific.com/","en-US,en;q=0.5","6788d757838ec1fd4189dc63","679147d2997803490f072fae","679152da5a9877d2deb3f842","","751","","0","Intro Trial",""
"","","","","","html-button-response","12","343439","0.0-4.8-0.8-0.8","25","1","2025-01-22 20:19:54","6073afb29c8d06c5d8f22ae9f1371ff8","107.180.176.71","Mozilla/5.0 (Windows NT 10.0; Win64; x64; rv:134.0) Gecko/20100101 Firefox/134.0","","Firefox","134.0","Windows","10.0","https://app.prolific.com/","en-US,en;q=0.5","6788d757838ec1fd4189dc63","679147d2997803490f072fae","679152da5a9877d2deb3f842","","10244","","3","Intro Trial",""
"","","","","","html-button-response","13","344331","0.0-4.9-0.9-0.9","25","1","2025-01-22 20:19:54","6073afb29c8d06c5d8f22ae9f1371ff8","107.180.176.71","Mozilla/5.0 (Windows NT 10.0; Win64; x64; rv:134.0) Gecko/20100101 Firefox/134.0","","Firefox","134.0","Windows","10.0","https://app.prolific.com/","en-US,en;q=0.5","6788d757838ec1fd4189dc63","679147d2997803490f072fae","679152da5a9877d2deb3f842","","882","","2","Intro Trial",""
"","","","","","html-button-response","14","345788","0.0-4.10-0.10-0.10","25","1","2025-01-22 20:19:54","6073afb29c8d06c5d8f22ae9f1371ff8","107.180.176.71","Mozilla/5.0 (Windows NT 10.0; Win64; x64; rv:134.0) Gecko/20100101 Firefox/134.0","","Firefox","134.0","Windows","10.0","https://app.prolific.com/","en-US,en;q=0.5","6788d757838ec1fd4189dc63","679147d2997803490f072fae","679152da5a9877d2deb3f842","","1453","","4","Intro Trial",""
"","","","","","html-button-response","15","346269","0.0-4.11-0.11-0.11","25","1","2025-01-22 20:19:54","6073afb29c8d06c5d8f22ae9f1371ff8","107.180.176.71","Mozilla/5.0 (Windows NT 10.0; Win64; x64; rv:134.0) Gecko/20100101 Firefox/134.0","","Firefox","134.0","Windows","10.0","https://app.prolific.com/","en-US,en;q=0.5","6788d757838ec1fd4189dc63","679147d2997803490f072fae","679152da5a9877d2deb3f842","","471","","3","Intro Trial",""
"","","","","","html-button-response","16","374948","0.0-4.12-0.12-0.12","25","1","2025-01-22 20:19:54","6073afb29c8d06c5d8f22ae9f1371ff8","107.180.176.71","Mozilla/5.0 (Windows NT 10.0; Win64; x64; rv:134.0) Gecko/20100101 Firefox/134.0","","Firefox","134.0","Windows","10.0","https://app.prolific.com/","en-US,en;q=0.5","6788d757838ec1fd4189dc63","679147d2997803490f072fae","679152da5a9877d2deb3f842","","28678","","4","Intro Trial",""
"","","","","","html-button-response","17","377320","0.0-4.13-0.13-0.13","25","1","2025-01-22 20:19:54","6073afb29c8d06c5d8f22ae9f1371ff8","107.180.176.71","Mozilla/5.0 (Windows NT 10.0; Win64; x64; rv:134.0) Gecko/20100101 Firefox/134.0","","Firefox","134.0","Windows","10.0","https://app.prolific.com/","en-US,en;q=0.5","6788d757838ec1fd4189dc63","679147d2997803490f072fae","679152da5a9877d2deb3f842","","2358","","1","Intro Trial",""
"","","","","","html-button-response","18","378862","0.0-4.14-0.14-0.14","25","1","2025-01-22 20:19:54","6073afb29c8d06c5d8f22ae9f1371ff8","107.180.176.71","Mozilla/5.0 (Windows NT 10.0; Win64; x64; rv:134.0) Gecko/20100101 Firefox/134.0","","Firefox","134.0","Windows","10.0","https://app.prolific.com/","en-US,en;q=0.5","6788d757838ec1fd4189dc63","679147d2997803490f072fae","679152da5a9877d2deb3f842","","1533","","4","Intro Trial",""
"","","","","","html-button-response","19","379825","0.0-4.15-0.15-0.15","25","1","2025-01-22 20:19:54","6073afb29c8d06c5d8f22ae9f1371ff8","107.180.176.71","Mozilla/5.0 (Windows NT 10.0; Win64; x64; rv:134.0) Gecko/20100101 Firefox/134.0","","Firefox","134.0","Windows","10.0","https://app.prolific.com/","en-US,en;q=0.5","6788d757838ec1fd4189dc63","679147d2997803490f072fae","679152da5a9877d2deb3f842","","961","","0","Intro Trial",""
"","","","","","html-button-response","20","381059","0.0-4.16-0.16-0.16","25","1","2025-01-22 20:19:54","6073afb29c8d06c5d8f22ae9f1371ff8","107.180.176.71","Mozilla/5.0 (Windows NT 10.0; Win64; x64; rv:134.0) Gecko/20100101 Firefox/134.0","","Firefox","134.0","Windows","10.0","https://app.prolific.com/","en-US,en;q=0.5","6788d757838ec1fd4189dc63","679147d2997803490f072fae","679152da5a9877d2deb3f842","","1231","","3","Intro Trial",""
"","","","","","html-button-response","21","381429","0.0-4.17-0.17-0.17","25","1","2025-01-22 20:19:54","6073afb29c8d06c5d8f22ae9f1371ff8","107.180.176.71","Mozilla/5.0 (Windows NT 10.0; Win64; x64; rv:134.0) Gecko/20100101 Firefox/134.0","","Firefox","134.0","Windows","10.0","https://app.prolific.com/","en-US,en;q=0.5","6788d757838ec1fd4189dc63","679147d2997803490f072fae","679152da5a9877d2deb3f842","","366","","2","Intro Trial",""
"","","","","","html-button-response","22","384869","0.0-4.18-0.18-0.18","25","1","2025-01-22 20:19:54","6073afb29c8d06c5d8f22ae9f1371ff8","107.180.176.71","Mozilla/5.0 (Windows NT 10.0; Win64; x64; rv:134.0) Gecko/20100101 Firefox/134.0","","Firefox","134.0","Windows","10.0","https://app.prolific.com/","en-US,en;q=0.5","6788d757838ec1fd4189dc63","679147d2997803490f072fae","679152da5a9877d2deb3f842","","3428","","4","Intro Trial",""
"","","","","","html-button-response","23","385327","0.0-4.19-0.19-0.19","25","1","2025-01-22 20:19:54","6073afb29c8d06c5d8f22ae9f1371ff8","107.180.176.71","Mozilla/5.0 (Windows NT 10.0; Win64; x64; rv:134.0) Gecko/20100101 Firefox/134.0","","Firefox","134.0","Windows","10.0","https://app.prolific.com/","en-US,en;q=0.5","6788d757838ec1fd4189dc63","679147d2997803490f072fae","679152da5a9877d2deb3f842","","451","","3","Intro Trial",""
"","","","","","html-button-response","24","386153","0.0-4.20-0.20-0.20","25","1","2025-01-22 20:19:54","6073afb29c8d06c5d8f22ae9f1371ff8","107.180.176.71","Mozilla/5.0 (Windows NT 10.0; Win64; x64; rv:134.0) Gecko/20100101 Firefox/134.0","","Firefox","134.0","Windows","10.0","https://app.prolific.com/","en-US,en;q=0.5","6788d757838ec1fd4189dc63","679147d2997803490f072fae","679152da5a9877d2deb3f842","","822","","3","Intro Trial",""
"","","","","","html-button-response","25","386959","0.0-4.21-0.21-0.21","25","1","2025-01-22 20:19:54","6073afb29c8d06c5d8f22ae9f1371ff8","107.180.176.71","Mozilla/5.0 (Windows NT 10.0; Win64; x64; rv:134.0) Gecko/20100101 Firefox/134.0","","Firefox","134.0","Windows","10.0","https://app.prolific.com/","en-US,en;q=0.5","6788d757838ec1fd4189dc63","679147d2997803490f072fae","679152da5a9877d2deb3f842","","799","","4","Intro Trial",""
"","","","","","html-button-response","26","387972","0.0-4.22-0.22-0.22","25","1","2025-01-22 20:19:54","6073afb29c8d06c5d8f22ae9f1371ff8","107.180.176.71","Mozilla/5.0 (Windows NT 10.0; Win64; x64; rv:134.0) Gecko/20100101 Firefox/134.0","","Firefox","134.0","Windows","10.0","https://app.prolific.com/","en-US,en;q=0.5","6788d757838ec1fd4189dc63","679147d2997803490f072fae","679152da5a9877d2deb3f842","","1006","","3","Intro Trial",""
"","","","","","html-button-response","27","388510","0.0-4.23-0.23-0.23","25","1","2025-01-22 20:19:54","6073afb29c8d06c5d8f22ae9f1371ff8","107.180.176.71","Mozilla/5.0 (Windows NT 10.0; Win64; x64; rv:134.0) Gecko/20100101 Firefox/134.0","","Firefox","134.0","Windows","10.0","https://app.prolific.com/","en-US,en;q=0.5","6788d757838ec1fd4189dc63","679147d2997803490f072fae","679152da5a9877d2deb3f842","","533","","4","Intro Trial",""
"","","","","","html-button-response","28","390863","0.0-4.24-0.24-0.24","25","1","2025-01-22 20:19:54","6073afb29c8d06c5d8f22ae9f1371ff8","107.180.176.71","Mozilla/5.0 (Windows NT 10.0; Win64; x64; rv:134.0) Gecko/20100101 Firefox/134.0","","Firefox","134.0","Windows","10.0","https://app.prolific.com/","en-US,en;q=0.5","6788d757838ec1fd4189dc63","679147d2997803490f072fae","679152da5a9877d2deb3f842","","2343","","1","Intro Trial",""
"","","","","","html-button-response","29","391822","0.0-4.25-0.25-0.25","25","1","2025-01-22 20:19:54","6073afb29c8d06c5d8f22ae9f1371ff8","107.180.176.71","Mozilla/5.0 (Windows NT 10.0; Win64; x64; rv:134.0) Gecko/20100101 Firefox/134.0","","Firefox","134.0","Windows","10.0","https://app.prolific.com/","en-US,en;q=0.5","6788d757838ec1fd4189dc63","679147d2997803490f072fae","679152da5a9877d2deb3f842","","947","","4","Intro Trial",""
"","","","","","html-button-response","30","393487","0.0-4.26-0.26-0.26","25","1","2025-01-22 20:19:54","6073afb29c8d06c5d8f22ae9f1371ff8","107.180.176.71","Mozilla/5.0 (Windows NT 10.0; Win64; x64; rv:134.0) Gecko/20100101 Firefox/134.0","","Firefox","134.0","Windows","10.0","https://app.prolific.com/","en-US,en;q=0.5","6788d757838ec1fd4189dc63","679147d2997803490f072fae","679152da5a9877d2deb3f842","","1656","","5","Intro Trial",""
"","","","","","html-keyboard-response","31","422367","0.0-5.0","25","1","2025-01-22 20:19:54","6073afb29c8d06c5d8f22ae9f1371ff8","107.180.176.71","Mozilla/5.0 (Windows NT 10.0; Win64; x64; rv:134.0) Gecko/20100101 Firefox/134.0","","Firefox","134.0","Windows","10.0","https://app.prolific.com/","en-US,en;q=0.5","6788d757838ec1fd4189dc63","679147d2997803490f072fae","679152da5a9877d2deb3f842","","28877","[""You sorted incorrectly by using the balance 13 times. <br><br> <img src='G_2.jpg' height='90'><img src='G_1.jpg' height='90'><img src='G_5.jpg' height='90'><img src='G_3.jpg' height='90'><img src='G_4.jpg' height='90'><br><br> Your final order is 2,4,1,3,5<br><br><br>Omgne Sort in this game will allow you to sort correctly by using the balance 8 times. Press Enter to learn it!""]","enter","",""
"","","","","","html-keyboard-response","32","428762","0.0-6.0","25","1","2025-01-22 20:19:54","6073afb29c8d06c5d8f22ae9f1371ff8","107.180.176.71","Mozilla/5.0 (Windows NT 10.0; Win64; x64; rv:134.0) Gecko/20100101 Firefox/134.0","","Firefox","134.0","Windows","10.0","https://app.prolific.com/","en-US,en;q=0.5","6788d757838ec1fd4189dc63","679147d2997803490f072fae","679152da5a9877d2deb3f842","","6381","<p>Welcome to the learning phase! <br><br> You will learn by four examples. The following learning trials will not be used to calculate your performance. <br><br> Press Enter to continue.<p/>","enter","",""
"","","","","","html-keyboard-response","33","444962","0.0-7.0","25","1","2025-01-22 20:19:54","6073afb29c8d06c5d8f22ae9f1371ff8","107.180.176.71","Mozilla/5.0 (Windows NT 10.0; Win64; x64; rv:134.0) Gecko/20100101 Firefox/134.0","","Firefox","134.0","Windows","10.0","https://app.prolific.com/","en-US,en;q=0.5","6788d757838ec1fd4189dc63","679147d2997803490f072fae","679152da5a9877d2deb3f842","","16197","[""Example 1<br><br>You will watch Omnge Sort in action. Try to identify any patterns in the comparisons made by this method. <br><br>Press Enter to continue.""]","enter","",""
"","","","","","html-keyboard-response","34","445492","0.0-8.0","25","1","2025-01-22 20:19:54","6073afb29c8d06c5d8f22ae9f1371ff8","107.180.176.71","Mozilla/5.0 (Windows NT 10.0; Win64; x64; rv:134.0) Gecko/20100101 Firefox/134.0","","Firefox","134.0","Windows","10.0","https://app.prolific.com/","en-US,en;q=0.5","6788d757838ec1fd4189dc63","679147d2997803490f072fae","679152da5a9877d2deb3f842","","null","<img id='selected' src='G_3.jpg' height='90'> <img src='G_5.jpg' height='90'> <img src='G_1.jpg' height='90'> <img src='G_9.jpg' height='90'> <img src='G_7.jpg' height='90'>","null","Animation0",""
"","","","","","html-keyboard-response","35","446010","0.0-9.0","25","1","2025-01-22 20:19:54","6073afb29c8d06c5d8f22ae9f1371ff8","107.180.176.71","Mozilla/5.0 (Windows NT 10.0; Win64; x64; rv:134.0) Gecko/20100101 Firefox/134.0","","Firefox","134.0","Windows","10.0","https://app.prolific.com/","en-US,en;q=0.5","6788d757838ec1fd4189dc63","679147d2997803490f072fae","679152da5a9877d2deb3f842","","null","<img id='selected' src='G_3.jpg' height='90'> <img id='selected' src='G_5.jpg' height='90'> <img src='G_1.jpg' height='90'> <img src='G_9.jpg' height='90'> <img src='G_7.jpg' height='90'>","null","Animation0",""
"","","","","","html-keyboard-response","36","446539","0.0-10.0","25","1","2025-01-22 20:19:54","6073afb29c8d06c5d8f22ae9f1371ff8","107.180.176.71","Mozilla/5.0 (Windows NT 10.0; Win64; x64; rv:134.0) Gecko/20100101 Firefox/134.0","","Firefox","134.0","Windows","10.0","https://app.prolific.com/","en-US,en;q=0.5","6788d757838ec1fd4189dc63","679147d2997803490f072fae","679152da5a9877d2deb3f842","","null","<img id='swapped' src='G_5.jpg' height='90'> <img id='swapped' src='G_3.jpg' height='90'> <img src='G_1.jpg' height='90'> <img src='G_9.jpg' height='90'> <img src='G_7.jpg' height='90'>","null","Animation0",""
"","","","","","html-keyboard-response","37","446856","0.0-11.0","25","1","2025-01-22 20:19:54","6073afb29c8d06c5d8f22ae9f1371ff8","107.180.176.71","Mozilla/5.0 (Windows NT 10.0; Win64; x64; rv:134.0) Gecko/20100101 Firefox/134.0","","Firefox","134.0","Windows","10.0","https://app.prolific.com/","en-US,en;q=0.5","6788d757838ec1fd4189dc63","679147d2997803490f072fae","679152da5a9877d2deb3f842","","null","<img  src='G_5.jpg' height='90'> <img  src='G_3.jpg' height='90'> <img src='G_1.jpg' height='90'> <img src='G_9.jpg' height='90'> <img src='G_7.jpg' height='90'>","null","Animation0",""
"","","","","","html-keyboard-response","38","447367","0.0-12.0","25","1","2025-01-22 20:19:54","6073afb29c8d06c5d8f22ae9f1371ff8","107.180.176.71","Mozilla/5.0 (Windows NT 10.0; Win64; x64; rv:134.0) Gecko/20100101 Firefox/134.0","","Firefox","134.0","Windows","10.0","https://app.prolific.com/","en-US,en;q=0.5","6788d757838ec1fd4189dc63","679147d2997803490f072fae","679152da5a9877d2deb3f842","","null","<img  src='G_5.jpg' height='90'> <img id='selected'  src='G_3.jpg' height='90'> <img src='G_1.jpg' height='90'> <img src='G_9.jpg' height='90'> <img src='G_7.jpg' height='90'>","null","Animation0",""
"","","","","","html-keyboard-response","39","447875","0.0-13.0","25","1","2025-01-22 20:19:54","6073afb29c8d06c5d8f22ae9f1371ff8","107.180.176.71","Mozilla/5.0 (Windows NT 10.0; Win64; x64; rv:134.0) Gecko/20100101 Firefox/134.0","","Firefox","134.0","Windows","10.0","https://app.prolific.com/","en-US,en;q=0.5","6788d757838ec1fd4189dc63","679147d2997803490f072fae","679152da5a9877d2deb3f842","","null","<img  src='G_5.jpg' height='90'> <img id='selected'  src='G_3.jpg' height='90'> <img id='selected' src='G_1.jpg' height='90'> <img src='G_9.jpg' height='90'> <img src='G_7.jpg' height='90'>","null","Animation0",""
"","","","","","html-keyboard-response","40","448407","0.0-14.0","25","1","2025-01-22 20:19:54","6073afb29c8d06c5d8f22ae9f1371ff8","107.180.176.71","Mozilla/5.0 (Windows NT 10.0; Win64; x64; rv:134.0) Gecko/20100101 Firefox/134.0","","Firefox","134.0","Windows","10.0","https://app.prolific.com/","en-US,en;q=0.5","6788d757838ec1fd4189dc63","679147d2997803490f072fae","679152da5a9877d2deb3f842","","null","<img  src='G_5.jpg' height='90'> <img id='selected'  src='G_3.jpg' height='90'> <img id='selected' src='G_1.jpg' height='90'> <img src='G_9.jpg' height='90'> <img src='G_7.jpg' height='90'>","null","Animation0",""
"","","","","","html-keyboard-response","41","448715","0.0-15.0","25","1","2025-01-22 20:19:54","6073afb29c8d06c5d8f22ae9f1371ff8","107.180.176.71","Mozilla/5.0 (Windows NT 10.0; Win64; x64; rv:134.0) Gecko/20100101 Firefox/134.0","","Firefox","134.0","Windows","10.0","https://app.prolific.com/","en-US,en;q=0.5","6788d757838ec1fd4189dc63","679147d2997803490f072fae","679152da5a9877d2deb3f842","","null","<img  src='G_5.jpg' height='90'> <img   src='G_3.jpg' height='90'> <img  src='G_1.jpg' height='90'> <img src='G_9.jpg' height='90'> <img src='G_7.jpg' height='90'>","null","Animation0",""
"","","","","","html-keyboard-response","42","449241","0.0-16.0","25","1","2025-01-22 20:19:54","6073afb29c8d06c5d8f22ae9f1371ff8","107.180.176.71","Mozilla/5.0 (Windows NT 10.0; Win64; x64; rv:134.0) Gecko/20100101 Firefox/134.0","","Firefox","134.0","Windows","10.0","https://app.prolific.com/","en-US,en;q=0.5","6788d757838ec1fd4189dc63","679147d2997803490f072fae","679152da5a9877d2deb3f842","","null","<img  src='G_5.jpg' height='90'> <img   src='G_3.jpg' height='90'> <img id='selected'  src='G_1.jpg' height='90'> <img src='G_9.jpg' height='90'> <img src='G_7.jpg' height='90'>","null","Animation0",""
"","","","","","html-keyboard-response","43","449755","0.0-17.0","25","1","2025-01-22 20:19:54","6073afb29c8d06c5d8f22ae9f1371ff8","107.180.176.71","Mozilla/5.0 (Windows NT 10.0; Win64; x64; rv:134.0) Gecko/20100101 Firefox/134.0","","Firefox","134.0","Windows","10.0","https://app.prolific.com/","en-US,en;q=0.5","6788d757838ec1fd4189dc63","679147d2997803490f072fae","679152da5a9877d2deb3f842","","null","<img  src='G_5.jpg' height='90'> <img   src='G_3.jpg' height='90'> <img id='selected'  src='G_1.jpg' height='90'> <img id='selected' src='G_9.jpg' height='90'> <img src='G_7.jpg' height='90'>","null","Animation0",""
"","","","","","html-keyboard-response","44","450274","0.0-18.0","25","1","2025-01-22 20:19:54","6073afb29c8d06c5d8f22ae9f1371ff8","107.180.176.71","Mozilla/5.0 (Windows NT 10.0; Win64; x64; rv:134.0) Gecko/20100101 Firefox/134.0","","Firefox","134.0","Windows","10.0","https://app.prolific.com/","en-US,en;q=0.5","6788d757838ec1fd4189dc63","679147d2997803490f072fae","679152da5a9877d2deb3f842","","null","<img  src='G_5.jpg' height='90'> <img   src='G_3.jpg' height='90'> <img id='selected'  src='G_1.jpg' height='90'> <img id='selected' src='G_9.jpg' height='90'> <img src='G_7.jpg' height='90'>","null","Animation0",""
"","","","","","html-keyboard-response","45","450583","0.0-19.0","25","1","2025-01-22 20:19:54","6073afb29c8d06c5d8f22ae9f1371ff8","107.180.176.71","Mozilla/5.0 (Windows NT 10.0; Win64; x64; rv:134.0) Gecko/20100101 Firefox/134.0","","Firefox","134.0","Windows","10.0","https://app.prolific.com/","en-US,en;q=0.5","6788d757838ec1fd4189dc63","679147d2997803490f072fae","679152da5a9877d2deb3f842","","null","<img  src='G_5.jpg' height='90'> <img   src='G_3.jpg' height='90'> <img   src='G_1.jpg' height='90'> <img  src='G_9.jpg' height='90'> <img src='G_7.jpg' height='90'>","null","Animation0",""
"","","","","","html-keyboard-response","46","451094","0.0-20.0","25","1","2025-01-22 20:19:54","6073afb29c8d06c5d8f22ae9f1371ff8","107.180.176.71","Mozilla/5.0 (Windows NT 10.0; Win64; x64; rv:134.0) Gecko/20100101 Firefox/134.0","","Firefox","134.0","Windows","10.0","https://app.prolific.com/","en-US,en;q=0.5","6788d757838ec1fd4189dc63","679147d2997803490f072fae","679152da5a9877d2deb3f842","","null","<img  src='G_5.jpg' height='90'> <img   src='G_3.jpg' height='90'> <img   src='G_1.jpg' height='90'> <img id='selected'  src='G_9.jpg' height='90'> <img src='G_7.jpg' height='90'>","null","Animation0",""
"","","","","","html-keyboard-response","47","451606","0.0-21.0","25","1","2025-01-22 20:19:54","6073afb29c8d06c5d8f22ae9f1371ff8","107.180.176.71","Mozilla/5.0 (Windows NT 10.0; Win64; x64; rv:134.0) Gecko/20100101 Firefox/134.0","","Firefox","134.0","Windows","10.0","https://app.prolific.com/","en-US,en;q=0.5","6788d757838ec1fd4189dc63","679147d2997803490f072fae","679152da5a9877d2deb3f842","","null","<img  src='G_5.jpg' height='90'> <img   src='G_3.jpg' height='90'> <img   src='G_1.jpg' height='90'> <img id='selected'  src='G_9.jpg' height='90'> <img id='selected' src='G_7.jpg' height='90'>","null","Animation0",""
"","","","","","html-keyboard-response","48","452123","0.0-22.0","25","1","2025-01-22 20:19:54","6073afb29c8d06c5d8f22ae9f1371ff8","107.180.176.71","Mozilla/5.0 (Windows NT 10.0; Win64; x64; rv:134.0) Gecko/20100101 Firefox/134.0","","Firefox","134.0","Windows","10.0","https://app.prolific.com/","en-US,en;q=0.5","6788d757838ec1fd4189dc63","679147d2997803490f072fae","679152da5a9877d2deb3f842","","null","<img  src='G_5.jpg' height='90'> <img   src='G_3.jpg' height='90'> <img   src='G_1.jpg' height='90'> <img id='selected'  src='G_9.jpg' height='90'> <img id='selected' src='G_7.jpg' height='90'>","null","Animation0",""
"","","","","","html-keyboard-response","49","452433","0.0-23.0","25","1","2025-01-22 20:19:54","6073afb29c8d06c5d8f22ae9f1371ff8","107.180.176.71","Mozilla/5.0 (Windows NT 10.0; Win64; x64; rv:134.0) Gecko/20100101 Firefox/134.0","","Firefox","134.0","Windows","10.0","https://app.prolific.com/","en-US,en;q=0.5","6788d757838ec1fd4189dc63","679147d2997803490f072fae","679152da5a9877d2deb3f842","","null","<img  src='G_5.jpg' height='90'> <img   src='G_3.jpg' height='90'> <img   src='G_1.jpg' height='90'> <img   src='G_9.jpg' height='90'> <img  src='G_7.jpg' height='90'>","null","Animation0",""
"","","","","","html-keyboard-response","50","459022","0.0-24.0","25","1","2025-01-22 20:19:54","6073afb29c8d06c5d8f22ae9f1371ff8","107.180.176.71","Mozilla/5.0 (Windows NT 10.0; Win64; x64; rv:134.0) Gecko/20100101 Firefox/134.0","","Firefox","134.0","Windows","10.0","https://app.prolific.com/","en-US,en;q=0.5","6788d757838ec1fd4189dc63","679147d2997803490f072fae","679152da5a9877d2deb3f842","","6582","[""Did you notice any patterns? <br><br>Press Enter to watch that example again and follow the steps of Omgne Sort.""]","enter","",""
"","","","","","html-button-response","51","459431","0.0-25.0","25","1","2025-01-22 20:19:54","6073afb29c8d06c5d8f22ae9f1371ff8","107.180.176.71","Mozilla/5.0 (Windows NT 10.0; Win64; x64; rv:134.0) Gecko/20100101 Firefox/134.0","","Firefox","134.0","Windows","10.0","https://app.prolific.com/","en-US,en;q=0.5","6788d757838ec1fd4189dc63","679147d2997803490f072fae","679152da5a9877d2deb3f842","","null","<img id='selected' src='G_3.jpg' height='90'> <img src='G_5.jpg' height='90'> <img src='G_1.jpg' height='90'> <img src='G_9.jpg' height='90'> <img src='G_7.jpg' height='90'>","null","Learning example 0",""
"","","","","","html-button-response","52","459756","0.0-26.0","25","1","2025-01-22 20:19:54","6073afb29c8d06c5d8f22ae9f1371ff8","107.180.176.71","Mozilla/5.0 (Windows NT 10.0; Win64; x64; rv:134.0) Gecko/20100101 Firefox/134.0","","Firefox","134.0","Windows","10.0","https://app.prolific.com/","en-US,en;q=0.5","6788d757838ec1fd4189dc63","679147d2997803490f072fae","679152da5a9877d2deb3f842","","null","<img id='selected' src='G_3.jpg' height='90'> <img id='selected' src='G_5.jpg' height='90'> <img src='G_1.jpg' height='90'> <img src='G_9.jpg' height='90'> <img src='G_7.jpg' height='90'>","null","Learning example 0",""
"","","","","","html-button-response","53","460068","0.0-27.0","25","1","2025-01-22 20:19:54","6073afb29c8d06c5d8f22ae9f1371ff8","107.180.176.71","Mozilla/5.0 (Windows NT 10.0; Win64; x64; rv:134.0) Gecko/20100101 Firefox/134.0","","Firefox","134.0","Windows","10.0","https://app.prolific.com/","en-US,en;q=0.5","6788d757838ec1fd4189dc63","679147d2997803490f072fae","679152da5a9877d2deb3f842","","null","<img id='swapped' src='G_5.jpg' height='90'> <img id='swapped' src='G_3.jpg' height='90'> <img src='G_1.jpg' height='90'> <img src='G_9.jpg' height='90'> <img src='G_7.jpg' height='90'>","null","Learning example 0",""
"","","","","","html-button-response","54","517293","0.0-28.0-0.0-0.0","25","1","2025-01-22 20:19:54","6073afb29c8d06c5d8f22ae9f1371ff8","107.180.176.71","Mozilla/5.0 (Windows NT 10.0; Win64; x64; rv:134.0) Gecko/20100101 Firefox/134.0","","Firefox","134.0","Windows","10.0","https://app.prolific.com/","en-US,en;q=0.5","6788d757838ec1fd4189dc63","679147d2997803490f072fae","679152da5a9877d2deb3f842","","57218","<img id='swapped' src='G_5.jpg' height='90'> <img id='swapped' src='G_3.jpg' height='90'> <img src='G_1.jpg' height='90'> <img src='G_9.jpg' height='90'> <img src='G_7.jpg' height='90'>","0","Learning example 0",""
"","","","","","html-button-response","55","517974","0.0-28.1-0.1-0.1","25","1","2025-01-22 20:19:54","6073afb29c8d06c5d8f22ae9f1371ff8","107.180.176.71","Mozilla/5.0 (Windows NT 10.0; Win64; x64; rv:134.0) Gecko/20100101 Firefox/134.0","","Firefox","134.0","Windows","10.0","https://app.prolific.com/","en-US,en;q=0.5","6788d757838ec1fd4189dc63","679147d2997803490f072fae","679152da5a9877d2deb3f842","","665","<img id='swapped' src='G_5.jpg' height='90'> <img id='swapped' src='G_3.jpg' height='90'> <img src='G_1.jpg' height='90'> <img src='G_9.jpg' height='90'> <img src='G_7.jpg' height='90'>","1","Learning example 0",""
"","","","","","html-button-response","56","518188","0.0-29.0","25","1","2025-01-22 20:19:54","6073afb29c8d06c5d8f22ae9f1371ff8","107.180.176.71","Mozilla/5.0 (Windows NT 10.0; Win64; x64; rv:134.0) Gecko/20100101 Firefox/134.0","","Firefox","134.0","Windows","10.0","https://app.prolific.com/","en-US,en;q=0.5","6788d757838ec1fd4189dc63","679147d2997803490f072fae","679152da5a9877d2deb3f842","","null","<img  src='G_5.jpg' height='90'> <img  src='G_3.jpg' height='90'> <img src='G_1.jpg' height='90'> <img src='G_9.jpg' height='90'> <img src='G_7.jpg' height='90'>","null","Learning example 0",""
"","","","","","html-button-response","57","518623","0.0-30.0","25","1","2025-01-22 20:19:54","6073afb29c8d06c5d8f22ae9f1371ff8","107.180.176.71","Mozilla/5.0 (Windows NT 10.0; Win64; x64; rv:134.0) Gecko/20100101 Firefox/134.0","","Firefox","134.0","Windows","10.0","https://app.prolific.com/","en-US,en;q=0.5","6788d757838ec1fd4189dc63","679147d2997803490f072fae","679152da5a9877d2deb3f842","","null","<img  src='G_5.jpg' height='90'> <img id='selected'  src='G_3.jpg' height='90'> <img src='G_1.jpg' height='90'> <img src='G_9.jpg' height='90'> <img src='G_7.jpg' height='90'>","null","Learning example 0",""
"","","","","","html-button-response","58","518933","0.0-31.0","25","1","2025-01-22 20:19:54","6073afb29c8d06c5d8f22ae9f1371ff8","107.180.176.71","Mozilla/5.0 (Windows NT 10.0; Win64; x64; rv:134.0) Gecko/20100101 Firefox/134.0","","Firefox","134.0","Windows","10.0","https://app.prolific.com/","en-US,en;q=0.5","6788d757838ec1fd4189dc63","679147d2997803490f072fae","679152da5a9877d2deb3f842","","null","<img  src='G_5.jpg' height='90'> <img id='selected'  src='G_3.jpg' height='90'> <img id='selected' src='G_1.jpg' height='90'> <img src='G_9.jpg' height='90'> <img src='G_7.jpg' height='90'>","null","Learning example 0",""
"","","","","","html-button-response","59","519240","0.0-32.0","25","1","2025-01-22 20:19:54","6073afb29c8d06c5d8f22ae9f1371ff8","107.180.176.71","Mozilla/5.0 (Windows NT 10.0; Win64; x64; rv:134.0) Gecko/20100101 Firefox/134.0","","Firefox","134.0","Windows","10.0","https://app.prolific.com/","en-US,en;q=0.5","6788d757838ec1fd4189dc63","679147d2997803490f072fae","679152da5a9877d2deb3f842","","null","<img  src='G_5.jpg' height='90'> <img id='selected'  src='G_3.jpg' height='90'> <img id='selected' src='G_1.jpg' height='90'> <img src='G_9.jpg' height='90'> <img src='G_7.jpg' height='90'>","null","Learning example 0",""
"","","","","","html-button-response","60","520758","0.0-33.0-0.0-0.0","25","1","2025-01-22 20:19:54","6073afb29c8d06c5d8f22ae9f1371ff8","107.180.176.71","Mozilla/5.0 (Windows NT 10.0; Win64; x64; rv:134.0) Gecko/20100101 Firefox/134.0","","Firefox","134.0","Windows","10.0","https://app.prolific.com/","en-US,en;q=0.5","6788d757838ec1fd4189dc63","679147d2997803490f072fae","679152da5a9877d2deb3f842","","1515","<img  src='G_5.jpg' height='90'> <img id='selected'  src='G_3.jpg' height='90'> <img id='selected' src='G_1.jpg' height='90'> <img src='G_9.jpg' height='90'> <img src='G_7.jpg' height='90'>","1","Learning example 0",""
"","","","","","html-button-response","61","521823","0.0-33.1-0.1-0.1","25","1","2025-01-22 20:19:54","6073afb29c8d06c5d8f22ae9f1371ff8","107.180.176.71","Mozilla/5.0 (Windows NT 10.0; Win64; x64; rv:134.0) Gecko/20100101 Firefox/134.0","","Firefox","134.0","Windows","10.0","https://app.prolific.com/","en-US,en;q=0.5","6788d757838ec1fd4189dc63","679147d2997803490f072fae","679152da5a9877d2deb3f842","","1049","<img  src='G_5.jpg' height='90'> <img id='selected'  src='G_3.jpg' height='90'> <img id='selected' src='G_1.jpg' height='90'> <img src='G_9.jpg' height='90'> <img src='G_7.jpg' height='90'>","2","Learning example 0",""
"","","","","","html-button-response","62","522031","0.0-34.0","25","1","2025-01-22 20:19:54","6073afb29c8d06c5d8f22ae9f1371ff8","107.180.176.71","Mozilla/5.0 (Windows NT 10.0; Win64; x64; rv:134.0) Gecko/20100101 Firefox/134.0","","Firefox","134.0","Windows","10.0","https://app.prolific.com/","en-US,en;q=0.5","6788d757838ec1fd4189dc63","679147d2997803490f072fae","679152da5a9877d2deb3f842","","null","<img  src='G_5.jpg' height='90'> <img   src='G_3.jpg' height='90'> <img  src='G_1.jpg' height='90'> <img src='G_9.jpg' height='90'> <img src='G_7.jpg' height='90'>","null","Learning example 0",""
"","","","","","html-button-response","63","522448","0.0-35.0","25","1","2025-01-22 20:19:54","6073afb29c8d06c5d8f22ae9f1371ff8","107.180.176.71","Mozilla/5.0 (Windows NT 10.0; Win64; x64; rv:134.0) Gecko/20100101 Firefox/134.0","","Firefox","134.0","Windows","10.0","https://app.prolific.com/","en-US,en;q=0.5","6788d757838ec1fd4189dc63","679147d2997803490f072fae","679152da5a9877d2deb3f842","","null","<img  src='G_5.jpg' height='90'> <img   src='G_3.jpg' height='90'> <img id='selected'  src='G_1.jpg' height='90'> <img src='G_9.jpg' height='90'> <img src='G_7.jpg' height='90'>","null","Learning example 0",""
"","","","","","html-button-response","64","522771","0.0-36.0","25","1","2025-01-22 20:19:54","6073afb29c8d06c5d8f22ae9f1371ff8","107.180.176.71","Mozilla/5.0 (Windows NT 10.0; Win64; x64; rv:134.0) Gecko/20100101 Firefox/134.0","","Firefox","134.0","Windows","10.0","https://app.prolific.com/","en-US,en;q=0.5","6788d757838ec1fd4189dc63","679147d2997803490f072fae","679152da5a9877d2deb3f842","","null","<img  src='G_5.jpg' height='90'> <img   src='G_3.jpg' height='90'> <img id='selected'  src='G_1.jpg' height='90'> <img id='selected' src='G_9.jpg' height='90'> <img src='G_7.jpg' height='90'>","null","Learning example 0",""
"","","","","","html-button-response","65","523081","0.0-37.0","25","1","2025-01-22 20:19:54","6073afb29c8d06c5d8f22ae9f1371ff8","107.180.176.71","Mozilla/5.0 (Windows NT 10.0; Win64; x64; rv:134.0) Gecko/20100101 Firefox/134.0","","Firefox","134.0","Windows","10.0","https://app.prolific.com/","en-US,en;q=0.5","6788d757838ec1fd4189dc63","679147d2997803490f072fae","679152da5a9877d2deb3f842","","null","<img  src='G_5.jpg' height='90'> <img   src='G_3.jpg' height='90'> <img id='selected'  src='G_1.jpg' height='90'> <img id='selected' src='G_9.jpg' height='90'> <img src='G_7.jpg' height='90'>","null","Learning example 0",""
"","","","","","html-button-response","66","524097","0.0-38.0-0.0-0.0","25","1","2025-01-22 20:19:54","6073afb29c8d06c5d8f22ae9f1371ff8","107.180.176.71","Mozilla/5.0 (Windows NT 10.0; Win64; x64; rv:134.0) Gecko/20100101 Firefox/134.0","","Firefox","134.0","Windows","10.0","https://app.prolific.com/","en-US,en;q=0.5","6788d757838ec1fd4189dc63","679147d2997803490f072fae","679152da5a9877d2deb3f842","","1005","<img  src='G_5.jpg' height='90'> <img   src='G_3.jpg' height='90'> <img id='selected'  src='G_1.jpg' height='90'> <img id='selected' src='G_9.jpg' height='90'> <img src='G_7.jpg' height='90'>","2","Learning example 0",""
"","","","","","html-button-response","67","525892","0.0-38.1-0.1-0.1","25","1","2025-01-22 20:19:54","6073afb29c8d06c5d8f22ae9f1371ff8","107.180.176.71","Mozilla/5.0 (Windows NT 10.0; Win64; x64; rv:134.0) Gecko/20100101 Firefox/134.0","","Firefox","134.0","Windows","10.0","https://app.prolific.com/","en-US,en;q=0.5","6788d757838ec1fd4189dc63","679147d2997803490f072fae","679152da5a9877d2deb3f842","","1786","<img  src='G_5.jpg' height='90'> <img   src='G_3.jpg' height='90'> <img id='selected'  src='G_1.jpg' height='90'> <img id='selected' src='G_9.jpg' height='90'> <img src='G_7.jpg' height='90'>","3","Learning example 0",""
"","","","","","html-button-response","68","526106","0.0-39.0","25","1","2025-01-22 20:19:54","6073afb29c8d06c5d8f22ae9f1371ff8","107.180.176.71","Mozilla/5.0 (Windows NT 10.0; Win64; x64; rv:134.0) Gecko/20100101 Firefox/134.0","","Firefox","134.0","Windows","10.0","https://app.prolific.com/","en-US,en;q=0.5","6788d757838ec1fd4189dc63","679147d2997803490f072fae","679152da5a9877d2deb3f842","","null","<img  src='G_5.jpg' height='90'> <img   src='G_3.jpg' height='90'> <img   src='G_1.jpg' height='90'> <img  src='G_9.jpg' height='90'> <img src='G_7.jpg' height='90'>","null","Learning example 0",""
"","","","","","html-button-response","69","526522","0.0-40.0","25","1","2025-01-22 20:19:54","6073afb29c8d06c5d8f22ae9f1371ff8","107.180.176.71","Mozilla/5.0 (Windows NT 10.0; Win64; x64; rv:134.0) Gecko/20100101 Firefox/134.0","","Firefox","134.0","Windows","10.0","https://app.prolific.com/","en-US,en;q=0.5","6788d757838ec1fd4189dc63","679147d2997803490f072fae","679152da5a9877d2deb3f842","","null","<img  src='G_5.jpg' height='90'> <img   src='G_3.jpg' height='90'> <img   src='G_1.jpg' height='90'> <img id='selected'  src='G_9.jpg' height='90'> <img src='G_7.jpg' height='90'>","null","Learning example 0",""
"","","","","","html-button-response","70","526833","0.0-41.0","25","1","2025-01-22 20:19:54","6073afb29c8d06c5d8f22ae9f1371ff8","107.180.176.71","Mozilla/5.0 (Windows NT 10.0; Win64; x64; rv:134.0) Gecko/20100101 Firefox/134.0","","Firefox","134.0","Windows","10.0","https://app.prolific.com/","en-US,en;q=0.5","6788d757838ec1fd4189dc63","679147d2997803490f072fae","679152da5a9877d2deb3f842","","null","<img  src='G_5.jpg' height='90'> <img   src='G_3.jpg' height='90'> <img   src='G_1.jpg' height='90'> <img id='selected'  src='G_9.jpg' height='90'> <img id='selected' src='G_7.jpg' height='90'>","null","Learning example 0",""
"","","","","","html-button-response","71","527140","0.0-42.0","25","1","2025-01-22 20:19:54","6073afb29c8d06c5d8f22ae9f1371ff8","107.180.176.71","Mozilla/5.0 (Windows NT 10.0; Win64; x64; rv:134.0) Gecko/20100101 Firefox/134.0","","Firefox","134.0","Windows","10.0","https://app.prolific.com/","en-US,en;q=0.5","6788d757838ec1fd4189dc63","679147d2997803490f072fae","679152da5a9877d2deb3f842","","null","<img  src='G_5.jpg' height='90'> <img   src='G_3.jpg' height='90'> <img   src='G_1.jpg' height='90'> <img id='selected'  src='G_9.jpg' height='90'> <img id='selected' src='G_7.jpg' height='90'>","null","Learning example 0",""
"","","","","","html-button-response","72","528080","0.0-43.0-0.0-0.0","25","1","2025-01-22 20:19:54","6073afb29c8d06c5d8f22ae9f1371ff8","107.180.176.71","Mozilla/5.0 (Windows NT 10.0; Win64; x64; rv:134.0) Gecko/20100101 Firefox/134.0","","Firefox","134.0","Windows","10.0","https://app.prolific.com/","en-US,en;q=0.5","6788d757838ec1fd4189dc63","679147d2997803490f072fae","679152da5a9877d2deb3f842","","931","<img  src='G_5.jpg' height='90'> <img   src='G_3.jpg' height='90'> <img   src='G_1.jpg' height='90'> <img id='selected'  src='G_9.jpg' height='90'> <img id='selected' src='G_7.jpg' height='90'>","3","Learning example 0",""
"","","","","","html-button-response","73","529224","0.0-43.1-0.1-0.1","25","1","2025-01-22 20:19:54","6073afb29c8d06c5d8f22ae9f1371ff8","107.180.176.71","Mozilla/5.0 (Windows NT 10.0; Win64; x64; rv:134.0) Gecko/20100101 Firefox/134.0","","Firefox","134.0","Windows","10.0","https://app.prolific.com/","en-US,en;q=0.5","6788d757838ec1fd4189dc63","679147d2997803490f072fae","679152da5a9877d2deb3f842","","1136","<img  src='G_5.jpg' height='90'> <img   src='G_3.jpg' height='90'> <img   src='G_1.jpg' height='90'> <img id='selected'  src='G_9.jpg' height='90'> <img id='selected' src='G_7.jpg' height='90'>","4","Learning example 0",""
"","","","","","html-button-response","74","529446","0.0-44.0","25","1","2025-01-22 20:19:54","6073afb29c8d06c5d8f22ae9f1371ff8","107.180.176.71","Mozilla/5.0 (Windows NT 10.0; Win64; x64; rv:134.0) Gecko/20100101 Firefox/134.0","","Firefox","134.0","Windows","10.0","https://app.prolific.com/","en-US,en;q=0.5","6788d757838ec1fd4189dc63","679147d2997803490f072fae","679152da5a9877d2deb3f842","","null","<img  src='G_5.jpg' height='90'> <img   src='G_3.jpg' height='90'> <img   src='G_1.jpg' height='90'> <img   src='G_9.jpg' height='90'> <img  src='G_7.jpg' height='90'>","null","Learning example 0",""
"","","","","","html-keyboard-response","75","541552","0.0-45.0","25","1","2025-01-22 20:19:54","6073afb29c8d06c5d8f22ae9f1371ff8","107.180.176.71","Mozilla/5.0 (Windows NT 10.0; Win64; x64; rv:134.0) Gecko/20100101 Firefox/134.0","","Firefox","134.0","Windows","10.0","https://app.prolific.com/","en-US,en;q=0.5","6788d757838ec1fd4189dc63","679147d2997803490f072fae","679152da5a9877d2deb3f842","","12102","[""Final order was 1,2,3,4,5. The initial order was 2,1,3,4,5.<br>It took 1 swaps to sort it correctly with Omgne Sort. <br><br>Press Enter to continue.""]","enter","",""
"","","","","","instructions","76","653805","0.0-46.0","25","1","2025-01-22 20:19:54","6073afb29c8d06c5d8f22ae9f1371ff8","107.180.176.71","Mozilla/5.0 (Windows NT 10.0; Win64; x64; rv:134.0) Gecko/20100101 Firefox/134.0","","Firefox","134.0","Windows","10.0","https://app.prolific.com/","en-US,en;q=0.5","6788d757838ec1fd4189dc63","679147d2997803490f072fae","679152da5a9877d2deb3f842","[{""page_index"":0,""viewing_time"":50200},{""page_index"":1,""viewing_time"":21264},{""page_index"":2,""viewing_time"":20740},{""page_index"":3,""viewing_time"":20046}]","112250","","","",""
"","","","","","html-keyboard-response","77","682031","0.0-47.0","25","1","2025-01-22 20:19:54","6073afb29c8d06c5d8f22ae9f1371ff8","107.180.176.71","Mozilla/5.0 (Windows NT 10.0; Win64; x64; rv:134.0) Gecko/20100101 Firefox/134.0","","Firefox","134.0","Windows","10.0","https://app.prolific.com/","en-US,en;q=0.5","6788d757838ec1fd4189dc63","679147d2997803490f072fae","679152da5a9877d2deb3f842","","28210","[""Example 2<br><br>You will watch Omnge Sort in action. Try to identify any patterns in the comparisons made by this method. <br><br>Press Enter to continue.""]","enter","",""
"","","","","","html-keyboard-response","78","682545","0.0-48.0","25","1","2025-01-22 20:19:54","6073afb29c8d06c5d8f22ae9f1371ff8","107.180.176.71","Mozilla/5.0 (Windows NT 10.0; Win64; x64; rv:134.0) Gecko/20100101 Firefox/134.0","","Firefox","134.0","Windows","10.0","https://app.prolific.com/","en-US,en;q=0.5","6788d757838ec1fd4189dc63","679147d2997803490f072fae","679152da5a9877d2deb3f842","","null","<img id='selected' src='G_3.jpg' height='90'> <img src='G_5.jpg' height='90'> <img src='G_1.jpg' height='90'> <img src='G_9.jpg' height='90'> <img src='G_7.jpg' height='90'>","null","Animation1",""
"","","","","","html-keyboard-response","79","683059","0.0-49.0","25","1","2025-01-22 20:19:54","6073afb29c8d06c5d8f22ae9f1371ff8","107.180.176.71","Mozilla/5.0 (Windows NT 10.0; Win64; x64; rv:134.0) Gecko/20100101 Firefox/134.0","","Firefox","134.0","Windows","10.0","https://app.prolific.com/","en-US,en;q=0.5","6788d757838ec1fd4189dc63","679147d2997803490f072fae","679152da5a9877d2deb3f842","","null","<img id='selected' src='G_3.jpg' height='90'> <img id='selected' src='G_5.jpg' height='90'> <img src='G_1.jpg' height='90'> <img src='G_9.jpg' height='90'> <img src='G_7.jpg' height='90'>","null","Animation1",""
"","","","","","html-keyboard-response","80","683571","0.0-50.0","25","1","2025-01-22 20:19:54","6073afb29c8d06c5d8f22ae9f1371ff8","107.180.176.71","Mozilla/5.0 (Windows NT 10.0; Win64; x64; rv:134.0) Gecko/20100101 Firefox/134.0","","Firefox","134.0","Windows","10.0","https://app.prolific.com/","en-US,en;q=0.5","6788d757838ec1fd4189dc63","679147d2997803490f072fae","679152da5a9877d2deb3f842","","null","<img id='swapped' src='G_5.jpg' height='90'> <img id='swapped' src='G_3.jpg' height='90'> <img src='G_1.jpg' height='90'> <img src='G_9.jpg' height='90'> <img src='G_7.jpg' height='90'>","null","Animation1",""
"","","","","","html-keyboard-response","81","683880","0.0-51.0","25","1","2025-01-22 20:19:54","6073afb29c8d06c5d8f22ae9f1371ff8","107.180.176.71","Mozilla/5.0 (Windows NT 10.0; Win64; x64; rv:134.0) Gecko/20100101 Firefox/134.0","","Firefox","134.0","Windows","10.0","https://app.prolific.com/","en-US,en;q=0.5","6788d757838ec1fd4189dc63","679147d2997803490f072fae","679152da5a9877d2deb3f842","","null","<img  src='G_5.jpg' height='90'> <img  src='G_3.jpg' height='90'> <img src='G_1.jpg' height='90'> <img src='G_9.jpg' height='90'> <img src='G_7.jpg' height='90'>","null","Animation1",""
"","","","","","html-keyboard-response","82","684396","0.0-52.0","25","1","2025-01-22 20:19:54","6073afb29c8d06c5d8f22ae9f1371ff8","107.180.176.71","Mozilla/5.0 (Windows NT 10.0; Win64; x64; rv:134.0) Gecko/20100101 Firefox/134.0","","Firefox","134.0","Windows","10.0","https://app.prolific.com/","en-US,en;q=0.5","6788d757838ec1fd4189dc63","679147d2997803490f072fae","679152da5a9877d2deb3f842","","null","<img  src='G_5.jpg' height='90'> <img id='selected'  src='G_3.jpg' height='90'> <img src='G_1.jpg' height='90'> <img src='G_9.jpg' height='90'> <img src='G_7.jpg' height='90'>","null","Animation1",""
"","","","","","html-keyboard-response","83","684909","0.0-53.0","25","1","2025-01-22 20:19:54","6073afb29c8d06c5d8f22ae9f1371ff8","107.180.176.71","Mozilla/5.0 (Windows NT 10.0; Win64; x64; rv:134.0) Gecko/20100101 Firefox/134.0","","Firefox","134.0","Windows","10.0","https://app.prolific.com/","en-US,en;q=0.5","6788d757838ec1fd4189dc63","679147d2997803490f072fae","679152da5a9877d2deb3f842","","null","<img  src='G_5.jpg' height='90'> <img id='selected'  src='G_3.jpg' height='90'> <img id='selected' src='G_1.jpg' height='90'> <img src='G_9.jpg' height='90'> <img src='G_7.jpg' height='90'>","null","Animation1",""
"","","","","","html-keyboard-response","84","685427","0.0-54.0","25","1","2025-01-22 20:19:54","6073afb29c8d06c5d8f22ae9f1371ff8","107.180.176.71","Mozilla/5.0 (Windows NT 10.0; Win64; x64; rv:134.0) Gecko/20100101 Firefox/134.0","","Firefox","134.0","Windows","10.0","https://app.prolific.com/","en-US,en;q=0.5","6788d757838ec1fd4189dc63","679147d2997803490f072fae","679152da5a9877d2deb3f842","","null","<img  src='G_5.jpg' height='90'> <img id='swapped' src='G_1.jpg' height='90'> <img id='swapped'  src='G_3.jpg' height='90'> <img src='G_9.jpg' height='90'> <img src='G_7.jpg' height='90'>","null","Animation1",""
"","","","","","html-keyboard-response","85","685747","0.0-55.0","25","1","2025-01-22 20:19:54","6073afb29c8d06c5d8f22ae9f1371ff8","107.180.176.71","Mozilla/5.0 (Windows NT 10.0; Win64; x64; rv:134.0) Gecko/20100101 Firefox/134.0","","Firefox","134.0","Windows","10.0","https://app.prolific.com/","en-US,en;q=0.5","6788d757838ec1fd4189dc63","679147d2997803490f072fae","679152da5a9877d2deb3f842","","null","<img  src='G_5.jpg' height='90'> <img  src='G_1.jpg' height='90'> <img   src='G_3.jpg' height='90'> <img src='G_9.jpg' height='90'> <img src='G_7.jpg' height='90'>","null","Animation1",""
"","","","","","html-keyboard-response","86","686276","0.0-56.0","25","1","2025-01-22 20:19:54","6073afb29c8d06c5d8f22ae9f1371ff8","107.180.176.71","Mozilla/5.0 (Windows NT 10.0; Win64; x64; rv:134.0) Gecko/20100101 Firefox/134.0","","Firefox","134.0","Windows","10.0","https://app.prolific.com/","en-US,en;q=0.5","6788d757838ec1fd4189dc63","679147d2997803490f072fae","679152da5a9877d2deb3f842","","null","<img id='selected'  src='G_5.jpg' height='90'> <img  src='G_1.jpg' height='90'> <img   src='G_3.jpg' height='90'> <img src='G_9.jpg' height='90'> <img src='G_7.jpg' height='90'>","null","Animation1",""
"","","","","","html-keyboard-response","87","686783","0.0-57.0","25","1","2025-01-22 20:19:54","6073afb29c8d06c5d8f22ae9f1371ff8","107.180.176.71","Mozilla/5.0 (Windows NT 10.0; Win64; x64; rv:134.0) Gecko/20100101 Firefox/134.0","","Firefox","134.0","Windows","10.0","https://app.prolific.com/","en-US,en;q=0.5","6788d757838ec1fd4189dc63","679147d2997803490f072fae","679152da5a9877d2deb3f842","","null","<img id='selected'  src='G_5.jpg' height='90'> <img id='selected'  src='G_1.jpg' height='90'> <img   src='G_3.jpg' height='90'> <img src='G_9.jpg' height='90'> <img src='G_7.jpg' height='90'>","null","Animation1",""
"","","","","","html-keyboard-response","88","687296","0.0-58.0","25","1","2025-01-22 20:19:54","6073afb29c8d06c5d8f22ae9f1371ff8","107.180.176.71","Mozilla/5.0 (Windows NT 10.0; Win64; x64; rv:134.0) Gecko/20100101 Firefox/134.0","","Firefox","134.0","Windows","10.0","https://app.prolific.com/","en-US,en;q=0.5","6788d757838ec1fd4189dc63","679147d2997803490f072fae","679152da5a9877d2deb3f842","","null","<img id='swapped'  src='G_1.jpg' height='90'> <img id='swapped'  src='G_5.jpg' height='90'> <img   src='G_3.jpg' height='90'> <img src='G_9.jpg' height='90'> <img src='G_7.jpg' height='90'>","null","Animation1",""
"","","","","","html-keyboard-response","89","687611","0.0-59.0","25","1","2025-01-22 20:19:54","6073afb29c8d06c5d8f22ae9f1371ff8","107.180.176.71","Mozilla/5.0 (Windows NT 10.0; Win64; x64; rv:134.0) Gecko/20100101 Firefox/134.0","","Firefox","134.0","Windows","10.0","https://app.prolific.com/","en-US,en;q=0.5","6788d757838ec1fd4189dc63","679147d2997803490f072fae","679152da5a9877d2deb3f842","","null","<img   src='G_1.jpg' height='90'> <img   src='G_5.jpg' height='90'> <img   src='G_3.jpg' height='90'> <img src='G_9.jpg' height='90'> <img src='G_7.jpg' height='90'>","null","Animation1",""
"","","","","","html-keyboard-response","90","688140","0.0-60.0","25","1","2025-01-22 20:19:54","6073afb29c8d06c5d8f22ae9f1371ff8","107.180.176.71","Mozilla/5.0 (Windows NT 10.0; Win64; x64; rv:134.0) Gecko/20100101 Firefox/134.0","","Firefox","134.0","Windows","10.0","https://app.prolific.com/","en-US,en;q=0.5","6788d757838ec1fd4189dc63","679147d2997803490f072fae","679152da5a9877d2deb3f842","","null","<img   src='G_1.jpg' height='90'> <img   src='G_5.jpg' height='90'> <img id='selected'   src='G_3.jpg' height='90'> <img src='G_9.jpg' height='90'> <img src='G_7.jpg' height='90'>","null","Animation1",""
"","","","","","html-keyboard-response","91","688648","0.0-61.0","25","1","2025-01-22 20:19:54","6073afb29c8d06c5d8f22ae9f1371ff8","107.180.176.71","Mozilla/5.0 (Windows NT 10.0; Win64; x64; rv:134.0) Gecko/20100101 Firefox/134.0","","Firefox","134.0","Windows","10.0","https://app.prolific.com/","en-US,en;q=0.5","6788d757838ec1fd4189dc63","679147d2997803490f072fae","679152da5a9877d2deb3f842","","null","<img   src='G_1.jpg' height='90'> <img   src='G_5.jpg' height='90'> <img id='selected'   src='G_3.jpg' height='90'> <img id='selected' src='G_9.jpg' height='90'> <img src='G_7.jpg' height='90'>","null","Animation1",""
"","","","","","html-keyboard-response","92","689177","0.0-62.0","25","1","2025-01-22 20:19:54","6073afb29c8d06c5d8f22ae9f1371ff8","107.180.176.71","Mozilla/5.0 (Windows NT 10.0; Win64; x64; rv:134.0) Gecko/20100101 Firefox/134.0","","Firefox","134.0","Windows","10.0","https://app.prolific.com/","en-US,en;q=0.5","6788d757838ec1fd4189dc63","679147d2997803490f072fae","679152da5a9877d2deb3f842","","null","<img   src='G_1.jpg' height='90'> <img   src='G_5.jpg' height='90'> <img id='swapped' src='G_9.jpg' height='90'> <img id='swapped'   src='G_3.jpg' height='90'> <img src='G_7.jpg' height='90'>","null","Animation1",""
"","","","","","html-keyboard-response","93","689493","0.0-63.0","25","1","2025-01-22 20:19:54","6073afb29c8d06c5d8f22ae9f1371ff8","107.180.176.71","Mozilla/5.0 (Windows NT 10.0; Win64; x64; rv:134.0) Gecko/20100101 Firefox/134.0","","Firefox","134.0","Windows","10.0","https://app.prolific.com/","en-US,en;q=0.5","6788d757838ec1fd4189dc63","679147d2997803490f072fae","679152da5a9877d2deb3f842","","null","<img   src='G_1.jpg' height='90'> <img   src='G_5.jpg' height='90'> <img  src='G_9.jpg' height='90'> <img    src='G_3.jpg' height='90'> <img src='G_7.jpg' height='90'>","null","Animation1",""
"","","","","","html-keyboard-response","94","690006","0.0-64.0","25","1","2025-01-22 20:19:54","6073afb29c8d06c5d8f22ae9f1371ff8","107.180.176.71","Mozilla/5.0 (Windows NT 10.0; Win64; x64; rv:134.0) Gecko/20100101 Firefox/134.0","","Firefox","134.0","Windows","10.0","https://app.prolific.com/","en-US,en;q=0.5","6788d757838ec1fd4189dc63","679147d2997803490f072fae","679152da5a9877d2deb3f842","","null","<img   src='G_1.jpg' height='90'> <img id='selected'   src='G_5.jpg' height='90'> <img  src='G_9.jpg' height='90'> <img    src='G_3.jpg' height='90'> <img src='G_7.jpg' height='90'>","null","Animation1",""
"","","","","","html-keyboard-response","95","690516","0.0-65.0","25","1","2025-01-22 20:19:54","6073afb29c8d06c5d8f22ae9f1371ff8","107.180.176.71","Mozilla/5.0 (Windows NT 10.0; Win64; x64; rv:134.0) Gecko/20100101 Firefox/134.0","","Firefox","134.0","Windows","10.0","https://app.prolific.com/","en-US,en;q=0.5","6788d757838ec1fd4189dc63","679147d2997803490f072fae","679152da5a9877d2deb3f842","","null","<img   src='G_1.jpg' height='90'> <img id='selected'   src='G_5.jpg' height='90'> <img id='selected'  src='G_9.jpg' height='90'> <img    src='G_3.jpg' height='90'> <img src='G_7.jpg' height='90'>","null","Animation1",""
"","","","","","html-keyboard-response","96","691041","0.0-66.0","25","1","2025-01-22 20:19:54","6073afb29c8d06c5d8f22ae9f1371ff8","107.180.176.71","Mozilla/5.0 (Windows NT 10.0; Win64; x64; rv:134.0) Gecko/20100101 Firefox/134.0","","Firefox","134.0","Windows","10.0","https://app.prolific.com/","en-US,en;q=0.5","6788d757838ec1fd4189dc63","679147d2997803490f072fae","679152da5a9877d2deb3f842","","null","<img   src='G_1.jpg' height='90'> <img id='swapped'  src='G_9.jpg' height='90'> <img id='swapped'   src='G_5.jpg' height='90'> <img    src='G_3.jpg' height='90'> <img src='G_7.jpg' height='90'>","null","Animation1",""
"","","","","","html-keyboard-response","97","691355","0.0-67.0","25","1","2025-01-22 20:19:54","6073afb29c8d06c5d8f22ae9f1371ff8","107.180.176.71","Mozilla/5.0 (Windows NT 10.0; Win64; x64; rv:134.0) Gecko/20100101 Firefox/134.0","","Firefox","134.0","Windows","10.0","https://app.prolific.com/","en-US,en;q=0.5","6788d757838ec1fd4189dc63","679147d2997803490f072fae","679152da5a9877d2deb3f842","","null","<img   src='G_1.jpg' height='90'> <img   src='G_9.jpg' height='90'> <img    src='G_5.jpg' height='90'> <img    src='G_3.jpg' height='90'> <img src='G_7.jpg' height='90'>","null","Animation1",""
"","","","","","html-keyboard-response","98","691864","0.0-68.0","25","1","2025-01-22 20:19:54","6073afb29c8d06c5d8f22ae9f1371ff8","107.180.176.71","Mozilla/5.0 (Windows NT 10.0; Win64; x64; rv:134.0) Gecko/20100101 Firefox/134.0","","Firefox","134.0","Windows","10.0","https://app.prolific.com/","en-US,en;q=0.5","6788d757838ec1fd4189dc63","679147d2997803490f072fae","679152da5a9877d2deb3f842","","null","<img id='selected'   src='G_1.jpg' height='90'> <img   src='G_9.jpg' height='90'> <img    src='G_5.jpg' height='90'> <img    src='G_3.jpg' height='90'> <img src='G_7.jpg' height='90'>","null","Animation1",""
"","","","","","html-keyboard-response","99","692442","0.0-69.0","25","1","2025-01-22 20:19:54","6073afb29c8d06c5d8f22ae9f1371ff8","107.180.176.71","Mozilla/5.0 (Windows NT 10.0; Win64; x64; rv:134.0) Gecko/20100101 Firefox/134.0","","Firefox","134.0","Windows","10.0","https://app.prolific.com/","en-US,en;q=0.5","6788d757838ec1fd4189dc63","679147d2997803490f072fae","679152da5a9877d2deb3f842","","null","<img id='selected'   src='G_1.jpg' height='90'> <img id='selected'   src='G_9.jpg' height='90'> <img    src='G_5.jpg' height='90'> <img    src='G_3.jpg' height='90'> <img src='G_7.jpg' height='90'>","null","Animation1",""
"","","","","","html-keyboard-response","100","692961","0.0-70.0","25","1","2025-01-22 20:19:54","6073afb29c8d06c5d8f22ae9f1371ff8","107.180.176.71","Mozilla/5.0 (Windows NT 10.0; Win64; x64; rv:134.0) Gecko/20100101 Firefox/134.0","","Firefox","134.0","Windows","10.0","https://app.prolific.com/","en-US,en;q=0.5","6788d757838ec1fd4189dc63","679147d2997803490f072fae","679152da5a9877d2deb3f842","","null","<img id='swapped'   src='G_9.jpg' height='90'> <img id='swapped'   src='G_1.jpg' height='90'> <img    src='G_5.jpg' height='90'> <img    src='G_3.jpg' height='90'> <img src='G_7.jpg' height='90'>","null","Animation1",""
"","","","","","html-keyboard-response","101","693275","0.0-71.0","25","1","2025-01-22 20:19:54","6073afb29c8d06c5d8f22ae9f1371ff8","107.180.176.71","Mozilla/5.0 (Windows NT 10.0; Win64; x64; rv:134.0) Gecko/20100101 Firefox/134.0","","Firefox","134.0","Windows","10.0","https://app.prolific.com/","en-US,en;q=0.5","6788d757838ec1fd4189dc63","679147d2997803490f072fae","679152da5a9877d2deb3f842","","null","<img    src='G_9.jpg' height='90'> <img    src='G_1.jpg' height='90'> <img    src='G_5.jpg' height='90'> <img    src='G_3.jpg' height='90'> <img src='G_7.jpg' height='90'>","null","Animation1",""
"","","","","","html-keyboard-response","102","693787","0.0-72.0","25","1","2025-01-22 20:19:54","6073afb29c8d06c5d8f22ae9f1371ff8","107.180.176.71","Mozilla/5.0 (Windows NT 10.0; Win64; x64; rv:134.0) Gecko/20100101 Firefox/134.0","","Firefox","134.0","Windows","10.0","https://app.prolific.com/","en-US,en;q=0.5","6788d757838ec1fd4189dc63","679147d2997803490f072fae","679152da5a9877d2deb3f842","","null","<img    src='G_9.jpg' height='90'> <img    src='G_1.jpg' height='90'> <img    src='G_5.jpg' height='90'> <img id='selected'    src='G_3.jpg' height='90'> <img src='G_7.jpg' height='90'>","null","Animation1",""
"","","","","","html-keyboard-response","103","694299","0.0-73.0","25","1","2025-01-22 20:19:54","6073afb29c8d06c5d8f22ae9f1371ff8","107.180.176.71","Mozilla/5.0 (Windows NT 10.0; Win64; x64; rv:134.0) Gecko/20100101 Firefox/134.0","","Firefox","134.0","Windows","10.0","https://app.prolific.com/","en-US,en;q=0.5","6788d757838ec1fd4189dc63","679147d2997803490f072fae","679152da5a9877d2deb3f842","","null","<img    src='G_9.jpg' height='90'> <img    src='G_1.jpg' height='90'> <img    src='G_5.jpg' height='90'> <img id='selected'    src='G_3.jpg' height='90'> <img id='selected' src='G_7.jpg' height='90'>","null","Animation1",""
"","","","","","html-keyboard-response","104","694811","0.0-74.0","25","1","2025-01-22 20:19:54","6073afb29c8d06c5d8f22ae9f1371ff8","107.180.176.71","Mozilla/5.0 (Windows NT 10.0; Win64; x64; rv:134.0) Gecko/20100101 Firefox/134.0","","Firefox","134.0","Windows","10.0","https://app.prolific.com/","en-US,en;q=0.5","6788d757838ec1fd4189dc63","679147d2997803490f072fae","679152da5a9877d2deb3f842","","null","<img    src='G_9.jpg' height='90'> <img    src='G_1.jpg' height='90'> <img    src='G_5.jpg' height='90'> <img id='swapped' src='G_7.jpg' height='90'> <img id='swapped'    src='G_3.jpg' height='90'>","null","Animation1",""
"","","","","","html-keyboard-response","105","695125","0.0-75.0","25","1","2025-01-22 20:19:54","6073afb29c8d06c5d8f22ae9f1371ff8","107.180.176.71","Mozilla/5.0 (Windows NT 10.0; Win64; x64; rv:134.0) Gecko/20100101 Firefox/134.0","","Firefox","134.0","Windows","10.0","https://app.prolific.com/","en-US,en;q=0.5","6788d757838ec1fd4189dc63","679147d2997803490f072fae","679152da5a9877d2deb3f842","","null","<img    src='G_9.jpg' height='90'> <img    src='G_1.jpg' height='90'> <img    src='G_5.jpg' height='90'> <img  src='G_7.jpg' height='90'> <img     src='G_3.jpg' height='90'>","null","Animation1",""
"","","","","","html-keyboard-response","106","695631","0.0-76.0","25","1","2025-01-22 20:19:54","6073afb29c8d06c5d8f22ae9f1371ff8","107.180.176.71","Mozilla/5.0 (Windows NT 10.0; Win64; x64; rv:134.0) Gecko/20100101 Firefox/134.0","","Firefox","134.0","Windows","10.0","https://app.prolific.com/","en-US,en;q=0.5","6788d757838ec1fd4189dc63","679147d2997803490f072fae","679152da5a9877d2deb3f842","","null","<img    src='G_9.jpg' height='90'> <img    src='G_1.jpg' height='90'> <img id='selected'    src='G_5.jpg' height='90'> <img  src='G_7.jpg' height='90'> <img     src='G_3.jpg' height='90'>","null","Animation1",""
"","","","","","html-keyboard-response","107","696158","0.0-77.0","25","1","2025-01-22 20:19:54","6073afb29c8d06c5d8f22ae9f1371ff8","107.180.176.71","Mozilla/5.0 (Windows NT 10.0; Win64; x64; rv:134.0) Gecko/20100101 Firefox/134.0","","Firefox","134.0","Windows","10.0","https://app.prolific.com/","en-US,en;q=0.5","6788d757838ec1fd4189dc63","679147d2997803490f072fae","679152da5a9877d2deb3f842","","null","<img    src='G_9.jpg' height='90'> <img    src='G_1.jpg' height='90'> <img id='selected'    src='G_5.jpg' height='90'> <img id='selected'  src='G_7.jpg' height='90'> <img     src='G_3.jpg' height='90'>","null","Animation1",""
"","","","","","html-keyboard-response","108","696665","0.0-78.0","25","1","2025-01-22 20:19:54","6073afb29c8d06c5d8f22ae9f1371ff8","107.180.176.71","Mozilla/5.0 (Windows NT 10.0; Win64; x64; rv:134.0) Gecko/20100101 Firefox/134.0","","Firefox","134.0","Windows","10.0","https://app.prolific.com/","en-US,en;q=0.5","6788d757838ec1fd4189dc63","679147d2997803490f072fae","679152da5a9877d2deb3f842","","null","<img    src='G_9.jpg' height='90'> <img    src='G_1.jpg' height='90'> <img id='swapped'  src='G_7.jpg' height='90'> <img id='swapped'    src='G_5.jpg' height='90'> <img     src='G_3.jpg' height='90'>","null","Animation1",""
"","","","","","html-keyboard-response","109","696979","0.0-79.0","25","1","2025-01-22 20:19:54","6073afb29c8d06c5d8f22ae9f1371ff8","107.180.176.71","Mozilla/5.0 (Windows NT 10.0; Win64; x64; rv:134.0) Gecko/20100101 Firefox/134.0","","Firefox","134.0","Windows","10.0","https://app.prolific.com/","en-US,en;q=0.5","6788d757838ec1fd4189dc63","679147d2997803490f072fae","679152da5a9877d2deb3f842","","null","<img    src='G_9.jpg' height='90'> <img    src='G_1.jpg' height='90'> <img   src='G_7.jpg' height='90'> <img     src='G_5.jpg' height='90'> <img     src='G_3.jpg' height='90'>","null","Animation1",""
"","","","","","html-keyboard-response","110","697506","0.0-80.0","25","1","2025-01-22 20:19:54","6073afb29c8d06c5d8f22ae9f1371ff8","107.180.176.71","Mozilla/5.0 (Windows NT 10.0; Win64; x64; rv:134.0) Gecko/20100101 Firefox/134.0","","Firefox","134.0","Windows","10.0","https://app.prolific.com/","en-US,en;q=0.5","6788d757838ec1fd4189dc63","679147d2997803490f072fae","679152da5a9877d2deb3f842","","null","<img    src='G_9.jpg' height='90'> <img id='selected'    src='G_1.jpg' height='90'> <img   src='G_7.jpg' height='90'> <img     src='G_5.jpg' height='90'> <img     src='G_3.jpg' height='90'>","null","Animation1",""
"","","","","","html-keyboard-response","111","698019","0.0-81.0","25","1","2025-01-22 20:19:54","6073afb29c8d06c5d8f22ae9f1371ff8","107.180.176.71","Mozilla/5.0 (Windows NT 10.0; Win64; x64; rv:134.0) Gecko/20100101 Firefox/134.0","","Firefox","134.0","Windows","10.0","https://app.prolific.com/","en-US,en;q=0.5","6788d757838ec1fd4189dc63","679147d2997803490f072fae","679152da5a9877d2deb3f842","","null","<img    src='G_9.jpg' height='90'> <img id='selected'    src='G_1.jpg' height='90'> <img id='selected'   src='G_7.jpg' height='90'> <img     src='G_5.jpg' height='90'> <img     src='G_3.jpg' height='90'>","null","Animation1",""
"","","","","","html-keyboard-response","112","698530","0.0-82.0","25","1","2025-01-22 20:19:54","6073afb29c8d06c5d8f22ae9f1371ff8","107.180.176.71","Mozilla/5.0 (Windows NT 10.0; Win64; x64; rv:134.0) Gecko/20100101 Firefox/134.0","","Firefox","134.0","Windows","10.0","https://app.prolific.com/","en-US,en;q=0.5","6788d757838ec1fd4189dc63","679147d2997803490f072fae","679152da5a9877d2deb3f842","","null","<img    src='G_9.jpg' height='90'> <img id='swapped'   src='G_7.jpg' height='90'> <img id='swapped'    src='G_1.jpg' height='90'> <img     src='G_5.jpg' height='90'> <img     src='G_3.jpg' height='90'>","null","Animation1",""
"","","","","","html-keyboard-response","113","698839","0.0-83.0","25","1","2025-01-22 20:19:54","6073afb29c8d06c5d8f22ae9f1371ff8","107.180.176.71","Mozilla/5.0 (Windows NT 10.0; Win64; x64; rv:134.0) Gecko/20100101 Firefox/134.0","","Firefox","134.0","Windows","10.0","https://app.prolific.com/","en-US,en;q=0.5","6788d757838ec1fd4189dc63","679147d2997803490f072fae","679152da5a9877d2deb3f842","","null","<img    src='G_9.jpg' height='90'> <img    src='G_7.jpg' height='90'> <img     src='G_1.jpg' height='90'> <img     src='G_5.jpg' height='90'> <img     src='G_3.jpg' height='90'>","null","Animation1",""
"","","","","","html-keyboard-response","114","699360","0.0-84.0","25","1","2025-01-22 20:19:54","6073afb29c8d06c5d8f22ae9f1371ff8","107.180.176.71","Mozilla/5.0 (Windows NT 10.0; Win64; x64; rv:134.0) Gecko/20100101 Firefox/134.0","","Firefox","134.0","Windows","10.0","https://app.prolific.com/","en-US,en;q=0.5","6788d757838ec1fd4189dc63","679147d2997803490f072fae","679152da5a9877d2deb3f842","","null","<img id='selected'    src='G_9.jpg' height='90'> <img    src='G_7.jpg' height='90'> <img     src='G_1.jpg' height='90'> <img     src='G_5.jpg' height='90'> <img     src='G_3.jpg' height='90'>","null","Animation1",""
"","","","","","html-keyboard-response","115","699872","0.0-85.0","25","1","2025-01-22 20:19:54","6073afb29c8d06c5d8f22ae9f1371ff8","107.180.176.71","Mozilla/5.0 (Windows NT 10.0; Win64; x64; rv:134.0) Gecko/20100101 Firefox/134.0","","Firefox","134.0","Windows","10.0","https://app.prolific.com/","en-US,en;q=0.5","6788d757838ec1fd4189dc63","679147d2997803490f072fae","679152da5a9877d2deb3f842","","null","<img id='selected'    src='G_9.jpg' height='90'> <img id='selected'    src='G_7.jpg' height='90'> <img     src='G_1.jpg' height='90'> <img     src='G_5.jpg' height='90'> <img     src='G_3.jpg' height='90'>","null","Animation1",""
"","","","","","html-keyboard-response","116","700385","0.0-86.0","25","1","2025-01-22 20:19:54","6073afb29c8d06c5d8f22ae9f1371ff8","107.180.176.71","Mozilla/5.0 (Windows NT 10.0; Win64; x64; rv:134.0) Gecko/20100101 Firefox/134.0","","Firefox","134.0","Windows","10.0","https://app.prolific.com/","en-US,en;q=0.5","6788d757838ec1fd4189dc63","679147d2997803490f072fae","679152da5a9877d2deb3f842","","null","<img id='swapped'    src='G_7.jpg' height='90'> <img id='swapped'    src='G_9.jpg' height='90'> <img     src='G_1.jpg' height='90'> <img     src='G_5.jpg' height='90'> <img     src='G_3.jpg' height='90'>","null","Animation1",""
"","","","","","html-keyboard-response","117","700697","0.0-87.0","25","1","2025-01-22 20:19:54","6073afb29c8d06c5d8f22ae9f1371ff8","107.180.176.71","Mozilla/5.0 (Windows NT 10.0; Win64; x64; rv:134.0) Gecko/20100101 Firefox/134.0","","Firefox","134.0","Windows","10.0","https://app.prolific.com/","en-US,en;q=0.5","6788d757838ec1fd4189dc63","679147d2997803490f072fae","679152da5a9877d2deb3f842","","null","<img     src='G_7.jpg' height='90'> <img     src='G_9.jpg' height='90'> <img     src='G_1.jpg' height='90'> <img     src='G_5.jpg' height='90'> <img     src='G_3.jpg' height='90'>","null","Animation1",""
"","","","","","html-keyboard-response","118","707826","0.0-88.0","25","1","2025-01-22 20:19:54","6073afb29c8d06c5d8f22ae9f1371ff8","107.180.176.71","Mozilla/5.0 (Windows NT 10.0; Win64; x64; rv:134.0) Gecko/20100101 Firefox/134.0","","Firefox","134.0","Windows","10.0","https://app.prolific.com/","en-US,en;q=0.5","6788d757838ec1fd4189dc63","679147d2997803490f072fae","679152da5a9877d2deb3f842","","7116","[""Did you notice any patterns? <br><br>Press Enter to watch that example again and follow the steps of Omgne Sort.""]","enter","",""
"","","","","","html-button-response","119","708283","0.0-89.0","25","1","2025-01-22 20:19:54","6073afb29c8d06c5d8f22ae9f1371ff8","107.180.176.71","Mozilla/5.0 (Windows NT 10.0; Win64; x64; rv:134.0) Gecko/20100101 Firefox/134.0","","Firefox","134.0","Windows","10.0","https://app.prolific.com/","en-US,en;q=0.5","6788d757838ec1fd4189dc63","679147d2997803490f072fae","679152da5a9877d2deb3f842","","null","<img id='selected' src='G_3.jpg' height='90'> <img src='G_5.jpg' height='90'> <img src='G_1.jpg' height='90'> <img src='G_9.jpg' height='90'> <img src='G_7.jpg' height='90'>","null","Learning example 1",""
"","","","","","html-button-response","120","708607","0.0-90.0","25","1","2025-01-22 20:19:54","6073afb29c8d06c5d8f22ae9f1371ff8","107.180.176.71","Mozilla/5.0 (Windows NT 10.0; Win64; x64; rv:134.0) Gecko/20100101 Firefox/134.0","","Firefox","134.0","Windows","10.0","https://app.prolific.com/","en-US,en;q=0.5","6788d757838ec1fd4189dc63","679147d2997803490f072fae","679152da5a9877d2deb3f842","","null","<img id='selected' src='G_3.jpg' height='90'> <img id='selected' src='G_5.jpg' height='90'> <img src='G_1.jpg' height='90'> <img src='G_9.jpg' height='90'> <img src='G_7.jpg' height='90'>","null","Learning example 1",""
"","","","","","html-button-response","121","708951","0.0-91.0","25","1","2025-01-22 20:19:54","6073afb29c8d06c5d8f22ae9f1371ff8","107.180.176.71","Mozilla/5.0 (Windows NT 10.0; Win64; x64; rv:134.0) Gecko/20100101 Firefox/134.0","","Firefox","134.0","Windows","10.0","https://app.prolific.com/","en-US,en;q=0.5","6788d757838ec1fd4189dc63","679147d2997803490f072fae","679152da5a9877d2deb3f842","","null","<img id='swapped' src='G_5.jpg' height='90'> <img id='swapped' src='G_3.jpg' height='90'> <img src='G_1.jpg' height='90'> <img src='G_9.jpg' height='90'> <img src='G_7.jpg' height='90'>","null","Learning example 1",""
"","","","","","html-button-response","122","712060","0.0-92.0-0.0-0.0","25","1","2025-01-22 20:19:54","6073afb29c8d06c5d8f22ae9f1371ff8","107.180.176.71","Mozilla/5.0 (Windows NT 10.0; Win64; x64; rv:134.0) Gecko/20100101 Firefox/134.0","","Firefox","134.0","Windows","10.0","https://app.prolific.com/","en-US,en;q=0.5","6788d757838ec1fd4189dc63","679147d2997803490f072fae","679152da5a9877d2deb3f842","","3101","<img id='swapped' src='G_5.jpg' height='90'> <img id='swapped' src='G_3.jpg' height='90'> <img src='G_1.jpg' height='90'> <img src='G_9.jpg' height='90'> <img src='G_7.jpg' height='90'>","0","Learning example 1",""
"","","","","","html-button-response","123","712755","0.0-92.1-0.1-0.1","25","1","2025-01-22 20:19:54","6073afb29c8d06c5d8f22ae9f1371ff8","107.180.176.71","Mozilla/5.0 (Windows NT 10.0; Win64; x64; rv:134.0) Gecko/20100101 Firefox/134.0","","Firefox","134.0","Windows","10.0","https://app.prolific.com/","en-US,en;q=0.5","6788d757838ec1fd4189dc63","679147d2997803490f072fae","679152da5a9877d2deb3f842","","680","<img id='swapped' src='G_5.jpg' height='90'> <img id='swapped' src='G_3.jpg' height='90'> <img src='G_1.jpg' height='90'> <img src='G_9.jpg' height='90'> <img src='G_7.jpg' height='90'>","1","Learning example 1",""
"","","","","","html-button-response","124","712965","0.0-93.0","25","1","2025-01-22 20:19:54","6073afb29c8d06c5d8f22ae9f1371ff8","107.180.176.71","Mozilla/5.0 (Windows NT 10.0; Win64; x64; rv:134.0) Gecko/20100101 Firefox/134.0","","Firefox","134.0","Windows","10.0","https://app.prolific.com/","en-US,en;q=0.5","6788d757838ec1fd4189dc63","679147d2997803490f072fae","679152da5a9877d2deb3f842","","null","<img  src='G_5.jpg' height='90'> <img  src='G_3.jpg' height='90'> <img src='G_1.jpg' height='90'> <img src='G_9.jpg' height='90'> <img src='G_7.jpg' height='90'>","null","Learning example 1",""
"","","","","","html-button-response","125","713383","0.0-94.0","25","1","2025-01-22 20:19:54","6073afb29c8d06c5d8f22ae9f1371ff8","107.180.176.71","Mozilla/5.0 (Windows NT 10.0; Win64; x64; rv:134.0) Gecko/20100101 Firefox/134.0","","Firefox","134.0","Windows","10.0","https://app.prolific.com/","en-US,en;q=0.5","6788d757838ec1fd4189dc63","679147d2997803490f072fae","679152da5a9877d2deb3f842","","null","<img  src='G_5.jpg' height='90'> <img id='selected'  src='G_3.jpg' height='90'> <img src='G_1.jpg' height='90'> <img src='G_9.jpg' height='90'> <img src='G_7.jpg' height='90'>","null","Learning example 1",""
"","","","","","html-button-response","126","713691","0.0-95.0","25","1","2025-01-22 20:19:54","6073afb29c8d06c5d8f22ae9f1371ff8","107.180.176.71","Mozilla/5.0 (Windows NT 10.0; Win64; x64; rv:134.0) Gecko/20100101 Firefox/134.0","","Firefox","134.0","Windows","10.0","https://app.prolific.com/","en-US,en;q=0.5","6788d757838ec1fd4189dc63","679147d2997803490f072fae","679152da5a9877d2deb3f842","","null","<img  src='G_5.jpg' height='90'> <img id='selected'  src='G_3.jpg' height='90'> <img id='selected' src='G_1.jpg' height='90'> <img src='G_9.jpg' height='90'> <img src='G_7.jpg' height='90'>","null","Learning example 1",""
"","","","","","html-button-response","127","714003","0.0-96.0","25","1","2025-01-22 20:19:54","6073afb29c8d06c5d8f22ae9f1371ff8","107.180.176.71","Mozilla/5.0 (Windows NT 10.0; Win64; x64; rv:134.0) Gecko/20100101 Firefox/134.0","","Firefox","134.0","Windows","10.0","https://app.prolific.com/","en-US,en;q=0.5","6788d757838ec1fd4189dc63","679147d2997803490f072fae","679152da5a9877d2deb3f842","","null","<img  src='G_5.jpg' height='90'> <img id='swapped' src='G_1.jpg' height='90'> <img id='swapped'  src='G_3.jpg' height='90'> <img src='G_9.jpg' height='90'> <img src='G_7.jpg' height='90'>","null","Learning example 1",""
"","","","","","html-button-response","128","714493","0.0-97.0-0.0-0.0","25","1","2025-01-22 20:19:54","6073afb29c8d06c5d8f22ae9f1371ff8","107.180.176.71","Mozilla/5.0 (Windows NT 10.0; Win64; x64; rv:134.0) Gecko/20100101 Firefox/134.0","","Firefox","134.0","Windows","10.0","https://app.prolific.com/","en-US,en;q=0.5","6788d757838ec1fd4189dc63","679147d2997803490f072fae","679152da5a9877d2deb3f842","","479","<img  src='G_5.jpg' height='90'> <img id='swapped' src='G_1.jpg' height='90'> <img id='swapped'  src='G_3.jpg' height='90'> <img src='G_9.jpg' height='90'> <img src='G_7.jpg' height='90'>","1","Learning example 1",""
"","","","","","html-button-response","129","716244","0.0-97.1-0.1-0.1","25","1","2025-01-22 20:19:54","6073afb29c8d06c5d8f22ae9f1371ff8","107.180.176.71","Mozilla/5.0 (Windows NT 10.0; Win64; x64; rv:134.0) Gecko/20100101 Firefox/134.0","","Firefox","134.0","Windows","10.0","https://app.prolific.com/","en-US,en;q=0.5","6788d757838ec1fd4189dc63","679147d2997803490f072fae","679152da5a9877d2deb3f842","","1736","<img  src='G_5.jpg' height='90'> <img id='swapped' src='G_1.jpg' height='90'> <img id='swapped'  src='G_3.jpg' height='90'> <img src='G_9.jpg' height='90'> <img src='G_7.jpg' height='90'>","2","Learning example 1",""
"","","","","","html-button-response","130","716475","0.0-98.0","25","1","2025-01-22 20:19:54","6073afb29c8d06c5d8f22ae9f1371ff8","107.180.176.71","Mozilla/5.0 (Windows NT 10.0; Win64; x64; rv:134.0) Gecko/20100101 Firefox/134.0","","Firefox","134.0","Windows","10.0","https://app.prolific.com/","en-US,en;q=0.5","6788d757838ec1fd4189dc63","679147d2997803490f072fae","679152da5a9877d2deb3f842","","null","<img  src='G_5.jpg' height='90'> <img  src='G_1.jpg' height='90'> <img   src='G_3.jpg' height='90'> <img src='G_9.jpg' height='90'> <img src='G_7.jpg' height='90'>","null","Learning example 1",""
"","","","","","html-button-response","131","716899","0.0-99.0","25","1","2025-01-22 20:19:54","6073afb29c8d06c5d8f22ae9f1371ff8","107.180.176.71","Mozilla/5.0 (Windows NT 10.0; Win64; x64; rv:134.0) Gecko/20100101 Firefox/134.0","","Firefox","134.0","Windows","10.0","https://app.prolific.com/","en-US,en;q=0.5","6788d757838ec1fd4189dc63","679147d2997803490f072fae","679152da5a9877d2deb3f842","","null","<img id='selected'  src='G_5.jpg' height='90'> <img  src='G_1.jpg' height='90'> <img   src='G_3.jpg' height='90'> <img src='G_9.jpg' height='90'> <img src='G_7.jpg' height='90'>","null","Learning example 1",""
"","","","","","html-button-response","132","717224","0.0-100.0","25","1","2025-01-22 20:19:54","6073afb29c8d06c5d8f22ae9f1371ff8","107.180.176.71","Mozilla/5.0 (Windows NT 10.0; Win64; x64; rv:134.0) Gecko/20100101 Firefox/134.0","","Firefox","134.0","Windows","10.0","https://app.prolific.com/","en-US,en;q=0.5","6788d757838ec1fd4189dc63","679147d2997803490f072fae","679152da5a9877d2deb3f842","","null","<img id='selected'  src='G_5.jpg' height='90'> <img id='selected'  src='G_1.jpg' height='90'> <img   src='G_3.jpg' height='90'> <img src='G_9.jpg' height='90'> <img src='G_7.jpg' height='90'>","null","Learning example 1",""
"","","","","","html-button-response","133","717544","0.0-101.0","25","1","2025-01-22 20:19:54","6073afb29c8d06c5d8f22ae9f1371ff8","107.180.176.71","Mozilla/5.0 (Windows NT 10.0; Win64; x64; rv:134.0) Gecko/20100101 Firefox/134.0","","Firefox","134.0","Windows","10.0","https://app.prolific.com/","en-US,en;q=0.5","6788d757838ec1fd4189dc63","679147d2997803490f072fae","679152da5a9877d2deb3f842","","null","<img id='swapped'  src='G_1.jpg' height='90'> <img id='swapped'  src='G_5.jpg' height='90'> <img   src='G_3.jpg' height='90'> <img src='G_9.jpg' height='90'> <img src='G_7.jpg' height='90'>","null","Learning example 1",""
"","","","","","html-button-response","134","718657","0.0-102.0-0.0-0.0","25","1","2025-01-22 20:19:54","6073afb29c8d06c5d8f22ae9f1371ff8","107.180.176.71","Mozilla/5.0 (Windows NT 10.0; Win64; x64; rv:134.0) Gecko/20100101 Firefox/134.0","","Firefox","134.0","Windows","10.0","https://app.prolific.com/","en-US,en;q=0.5","6788d757838ec1fd4189dc63","679147d2997803490f072fae","679152da5a9877d2deb3f842","","1098","<img id='swapped'  src='G_1.jpg' height='90'> <img id='swapped'  src='G_5.jpg' height='90'> <img   src='G_3.jpg' height='90'> <img src='G_9.jpg' height='90'> <img src='G_7.jpg' height='90'>","0","Learning example 1",""
"","","","","","html-button-response","135","719654","0.0-102.1-0.1-0.1","25","1","2025-01-22 20:19:54","6073afb29c8d06c5d8f22ae9f1371ff8","107.180.176.71","Mozilla/5.0 (Windows NT 10.0; Win64; x64; rv:134.0) Gecko/20100101 Firefox/134.0","","Firefox","134.0","Windows","10.0","https://app.prolific.com/","en-US,en;q=0.5","6788d757838ec1fd4189dc63","679147d2997803490f072fae","679152da5a9877d2deb3f842","","978","<img id='swapped'  src='G_1.jpg' height='90'> <img id='swapped'  src='G_5.jpg' height='90'> <img   src='G_3.jpg' height='90'> <img src='G_9.jpg' height='90'> <img src='G_7.jpg' height='90'>","1","Learning example 1",""
"","","","","","html-button-response","136","719876","0.0-103.0","25","1","2025-01-22 20:19:54","6073afb29c8d06c5d8f22ae9f1371ff8","107.180.176.71","Mozilla/5.0 (Windows NT 10.0; Win64; x64; rv:134.0) Gecko/20100101 Firefox/134.0","","Firefox","134.0","Windows","10.0","https://app.prolific.com/","en-US,en;q=0.5","6788d757838ec1fd4189dc63","679147d2997803490f072fae","679152da5a9877d2deb3f842","","null","<img   src='G_1.jpg' height='90'> <img   src='G_5.jpg' height='90'> <img   src='G_3.jpg' height='90'> <img src='G_9.jpg' height='90'> <img src='G_7.jpg' height='90'>","null","Learning example 1",""
"","","","","","html-button-response","137","720296","0.0-104.0","25","1","2025-01-22 20:19:54","6073afb29c8d06c5d8f22ae9f1371ff8","107.180.176.71","Mozilla/5.0 (Windows NT 10.0; Win64; x64; rv:134.0) Gecko/20100101 Firefox/134.0","","Firefox","134.0","Windows","10.0","https://app.prolific.com/","en-US,en;q=0.5","6788d757838ec1fd4189dc63","679147d2997803490f072fae","679152da5a9877d2deb3f842","","null","<img   src='G_1.jpg' height='90'> <img   src='G_5.jpg' height='90'> <img id='selected'   src='G_3.jpg' height='90'> <img src='G_9.jpg' height='90'> <img src='G_7.jpg' height='90'>","null","Learning example 1",""
"","","","","","html-button-response","138","720653","0.0-105.0","25","1","2025-01-22 20:19:54","6073afb29c8d06c5d8f22ae9f1371ff8","107.180.176.71","Mozilla/5.0 (Windows NT 10.0; Win64; x64; rv:134.0) Gecko/20100101 Firefox/134.0","","Firefox","134.0","Windows","10.0","https://app.prolific.com/","en-US,en;q=0.5","6788d757838ec1fd4189dc63","679147d2997803490f072fae","679152da5a9877d2deb3f842","","null","<img   src='G_1.jpg' height='90'> <img   src='G_5.jpg' height='90'> <img id='selected'   src='G_3.jpg' height='90'> <img id='selected' src='G_9.jpg' height='90'> <img src='G_7.jpg' height='90'>","null","Learning example 1",""
"","","","","","html-button-response","139","720980","0.0-106.0","25","1","2025-01-22 20:19:54","6073afb29c8d06c5d8f22ae9f1371ff8","107.180.176.71","Mozilla/5.0 (Windows NT 10.0; Win64; x64; rv:134.0) Gecko/20100101 Firefox/134.0","","Firefox","134.0","Windows","10.0","https://app.prolific.com/","en-US,en;q=0.5","6788d757838ec1fd4189dc63","679147d2997803490f072fae","679152da5a9877d2deb3f842","","null","<img   src='G_1.jpg' height='90'> <img   src='G_5.jpg' height='90'> <img id='swapped' src='G_9.jpg' height='90'> <img id='swapped'   src='G_3.jpg' height='90'> <img src='G_7.jpg' height='90'>","null","Learning example 1",""
"","","","","","html-button-response","140","721361","0.0-107.0-0.0-0.0","25","1","2025-01-22 20:19:54","6073afb29c8d06c5d8f22ae9f1371ff8","107.180.176.71","Mozilla/5.0 (Windows NT 10.0; Win64; x64; rv:134.0) Gecko/20100101 Firefox/134.0","","Firefox","134.0","Windows","10.0","https://app.prolific.com/","en-US,en;q=0.5","6788d757838ec1fd4189dc63","679147d2997803490f072fae","679152da5a9877d2deb3f842","","368","<img   src='G_1.jpg' height='90'> <img   src='G_5.jpg' height='90'> <img id='swapped' src='G_9.jpg' height='90'> <img id='swapped'   src='G_3.jpg' height='90'> <img src='G_7.jpg' height='90'>","2","Learning example 1",""
"","","","","","html-button-response","141","722067","0.0-107.1-0.1-0.1","25","1","2025-01-22 20:19:54","6073afb29c8d06c5d8f22ae9f1371ff8","107.180.176.71","Mozilla/5.0 (Windows NT 10.0; Win64; x64; rv:134.0) Gecko/20100101 Firefox/134.0","","Firefox","134.0","Windows","10.0","https://app.prolific.com/","en-US,en;q=0.5","6788d757838ec1fd4189dc63","679147d2997803490f072fae","679152da5a9877d2deb3f842","","686","<img   src='G_1.jpg' height='90'> <img   src='G_5.jpg' height='90'> <img id='swapped' src='G_9.jpg' height='90'> <img id='swapped'   src='G_3.jpg' height='90'> <img src='G_7.jpg' height='90'>","3","Learning example 1",""
"","","","","","html-button-response","142","722296","0.0-108.0","25","1","2025-01-22 20:19:54","6073afb29c8d06c5d8f22ae9f1371ff8","107.180.176.71","Mozilla/5.0 (Windows NT 10.0; Win64; x64; rv:134.0) Gecko/20100101 Firefox/134.0","","Firefox","134.0","Windows","10.0","https://app.prolific.com/","en-US,en;q=0.5","6788d757838ec1fd4189dc63","679147d2997803490f072fae","679152da5a9877d2deb3f842","","null","<img   src='G_1.jpg' height='90'> <img   src='G_5.jpg' height='90'> <img  src='G_9.jpg' height='90'> <img    src='G_3.jpg' height='90'> <img src='G_7.jpg' height='90'>","null","Learning example 1",""
"","","","","","html-button-response","143","722714","0.0-109.0","25","1","2025-01-22 20:19:54","6073afb29c8d06c5d8f22ae9f1371ff8","107.180.176.71","Mozilla/5.0 (Windows NT 10.0; Win64; x64; rv:134.0) Gecko/20100101 Firefox/134.0","","Firefox","134.0","Windows","10.0","https://app.prolific.com/","en-US,en;q=0.5","6788d757838ec1fd4189dc63","679147d2997803490f072fae","679152da5a9877d2deb3f842","","null","<img   src='G_1.jpg' height='90'> <img id='selected'   src='G_5.jpg' height='90'> <img  src='G_9.jpg' height='90'> <img    src='G_3.jpg' height='90'> <img src='G_7.jpg' height='90'>","null","Learning example 1",""
"","","","","","html-button-response","144","723067","0.0-110.0","25","1","2025-01-22 20:19:54","6073afb29c8d06c5d8f22ae9f1371ff8","107.180.176.71","Mozilla/5.0 (Windows NT 10.0; Win64; x64; rv:134.0) Gecko/20100101 Firefox/134.0","","Firefox","134.0","Windows","10.0","https://app.prolific.com/","en-US,en;q=0.5","6788d757838ec1fd4189dc63","679147d2997803490f072fae","679152da5a9877d2deb3f842","","null","<img   src='G_1.jpg' height='90'> <img id='selected'   src='G_5.jpg' height='90'> <img id='selected'  src='G_9.jpg' height='90'> <img    src='G_3.jpg' height='90'> <img src='G_7.jpg' height='90'>","null","Learning example 1",""
"","","","","","html-button-response","145","723378","0.0-111.0","25","1","2025-01-22 20:19:54","6073afb29c8d06c5d8f22ae9f1371ff8","107.180.176.71","Mozilla/5.0 (Windows NT 10.0; Win64; x64; rv:134.0) Gecko/20100101 Firefox/134.0","","Firefox","134.0","Windows","10.0","https://app.prolific.com/","en-US,en;q=0.5","6788d757838ec1fd4189dc63","679147d2997803490f072fae","679152da5a9877d2deb3f842","","null","<img   src='G_1.jpg' height='90'> <img id='swapped'  src='G_9.jpg' height='90'> <img id='swapped'   src='G_5.jpg' height='90'> <img    src='G_3.jpg' height='90'> <img src='G_7.jpg' height='90'>","null","Learning example 1",""
"","","","","","html-button-response","146","723986","0.0-112.0-0.0-0.0","25","1","2025-01-22 20:19:54","6073afb29c8d06c5d8f22ae9f1371ff8","107.180.176.71","Mozilla/5.0 (Windows NT 10.0; Win64; x64; rv:134.0) Gecko/20100101 Firefox/134.0","","Firefox","134.0","Windows","10.0","https://app.prolific.com/","en-US,en;q=0.5","6788d757838ec1fd4189dc63","679147d2997803490f072fae","679152da5a9877d2deb3f842","","599","<img   src='G_1.jpg' height='90'> <img id='swapped'  src='G_9.jpg' height='90'> <img id='swapped'   src='G_5.jpg' height='90'> <img    src='G_3.jpg' height='90'> <img src='G_7.jpg' height='90'>","1","Learning example 1",""
"","","","","","html-button-response","147","724722","0.0-112.1-0.1-0.1","25","1","2025-01-22 20:19:54","6073afb29c8d06c5d8f22ae9f1371ff8","107.180.176.71","Mozilla/5.0 (Windows NT 10.0; Win64; x64; rv:134.0) Gecko/20100101 Firefox/134.0","","Firefox","134.0","Windows","10.0","https://app.prolific.com/","en-US,en;q=0.5","6788d757838ec1fd4189dc63","679147d2997803490f072fae","679152da5a9877d2deb3f842","","719","<img   src='G_1.jpg' height='90'> <img id='swapped'  src='G_9.jpg' height='90'> <img id='swapped'   src='G_5.jpg' height='90'> <img    src='G_3.jpg' height='90'> <img src='G_7.jpg' height='90'>","2","Learning example 1",""
"","","","","","html-button-response","148","724973","0.0-113.0","25","1","2025-01-22 20:19:54","6073afb29c8d06c5d8f22ae9f1371ff8","107.180.176.71","Mozilla/5.0 (Windows NT 10.0; Win64; x64; rv:134.0) Gecko/20100101 Firefox/134.0","","Firefox","134.0","Windows","10.0","https://app.prolific.com/","en-US,en;q=0.5","6788d757838ec1fd4189dc63","679147d2997803490f072fae","679152da5a9877d2deb3f842","","null","<img   src='G_1.jpg' height='90'> <img   src='G_9.jpg' height='90'> <img    src='G_5.jpg' height='90'> <img    src='G_3.jpg' height='90'> <img src='G_7.jpg' height='90'>","null","Learning example 1",""
"","","","","","html-button-response","149","725415","0.0-114.0","25","1","2025-01-22 20:19:54","6073afb29c8d06c5d8f22ae9f1371ff8","107.180.176.71","Mozilla/5.0 (Windows NT 10.0; Win64; x64; rv:134.0) Gecko/20100101 Firefox/134.0","","Firefox","134.0","Windows","10.0","https://app.prolific.com/","en-US,en;q=0.5","6788d757838ec1fd4189dc63","679147d2997803490f072fae","679152da5a9877d2deb3f842","","null","<img id='selected'   src='G_1.jpg' height='90'> <img   src='G_9.jpg' height='90'> <img    src='G_5.jpg' height='90'> <img    src='G_3.jpg' height='90'> <img src='G_7.jpg' height='90'>","null","Learning example 1",""
"","","","","","html-button-response","150","725736","0.0-115.0","25","1","2025-01-22 20:19:54","6073afb29c8d06c5d8f22ae9f1371ff8","107.180.176.71","Mozilla/5.0 (Windows NT 10.0; Win64; x64; rv:134.0) Gecko/20100101 Firefox/134.0","","Firefox","134.0","Windows","10.0","https://app.prolific.com/","en-US,en;q=0.5","6788d757838ec1fd4189dc63","679147d2997803490f072fae","679152da5a9877d2deb3f842","","null","<img id='selected'   src='G_1.jpg' height='90'> <img id='selected'   src='G_9.jpg' height='90'> <img    src='G_5.jpg' height='90'> <img    src='G_3.jpg' height='90'> <img src='G_7.jpg' height='90'>","null","Learning example 1",""
"","","","","","html-button-response","151","726049","0.0-116.0","25","1","2025-01-22 20:19:54","6073afb29c8d06c5d8f22ae9f1371ff8","107.180.176.71","Mozilla/5.0 (Windows NT 10.0; Win64; x64; rv:134.0) Gecko/20100101 Firefox/134.0","","Firefox","134.0","Windows","10.0","https://app.prolific.com/","en-US,en;q=0.5","6788d757838ec1fd4189dc63","679147d2997803490f072fae","679152da5a9877d2deb3f842","","null","<img id='swapped'   src='G_9.jpg' height='90'> <img id='swapped'   src='G_1.jpg' height='90'> <img    src='G_5.jpg' height='90'> <img    src='G_3.jpg' height='90'> <img src='G_7.jpg' height='90'>","null","Learning example 1",""
"","","","","","html-button-response","152","726723","0.0-117.0-0.0-0.0","25","1","2025-01-22 20:19:54","6073afb29c8d06c5d8f22ae9f1371ff8","107.180.176.71","Mozilla/5.0 (Windows NT 10.0; Win64; x64; rv:134.0) Gecko/20100101 Firefox/134.0","","Firefox","134.0","Windows","10.0","https://app.prolific.com/","en-US,en;q=0.5","6788d757838ec1fd4189dc63","679147d2997803490f072fae","679152da5a9877d2deb3f842","","667","<img id='swapped'   src='G_9.jpg' height='90'> <img id='swapped'   src='G_1.jpg' height='90'> <img    src='G_5.jpg' height='90'> <img    src='G_3.jpg' height='90'> <img src='G_7.jpg' height='90'>","0","Learning example 1",""
"","","","","","html-button-response","153","727818","0.0-117.1-0.1-0.1","25","1","2025-01-22 20:19:54","6073afb29c8d06c5d8f22ae9f1371ff8","107.180.176.71","Mozilla/5.0 (Windows NT 10.0; Win64; x64; rv:134.0) Gecko/20100101 Firefox/134.0","","Firefox","134.0","Windows","10.0","https://app.prolific.com/","en-US,en;q=0.5","6788d757838ec1fd4189dc63","679147d2997803490f072fae","679152da5a9877d2deb3f842","","1082","<img id='swapped'   src='G_9.jpg' height='90'> <img id='swapped'   src='G_1.jpg' height='90'> <img    src='G_5.jpg' height='90'> <img    src='G_3.jpg' height='90'> <img src='G_7.jpg' height='90'>","1","Learning example 1",""
"","","","","","html-button-response","154","728030","0.0-118.0","25","1","2025-01-22 20:19:54","6073afb29c8d06c5d8f22ae9f1371ff8","107.180.176.71","Mozilla/5.0 (Windows NT 10.0; Win64; x64; rv:134.0) Gecko/20100101 Firefox/134.0","","Firefox","134.0","Windows","10.0","https://app.prolific.com/","en-US,en;q=0.5","6788d757838ec1fd4189dc63","679147d2997803490f072fae","679152da5a9877d2deb3f842","","null","<img    src='G_9.jpg' height='90'> <img    src='G_1.jpg' height='90'> <img    src='G_5.jpg' height='90'> <img    src='G_3.jpg' height='90'> <img src='G_7.jpg' height='90'>","null","Learning example 1",""
"","","","","","html-button-response","155","728450","0.0-119.0","25","1","2025-01-22 20:19:54","6073afb29c8d06c5d8f22ae9f1371ff8","107.180.176.71","Mozilla/5.0 (Windows NT 10.0; Win64; x64; rv:134.0) Gecko/20100101 Firefox/134.0","","Firefox","134.0","Windows","10.0","https://app.prolific.com/","en-US,en;q=0.5","6788d757838ec1fd4189dc63","679147d2997803490f072fae","679152da5a9877d2deb3f842","","null","<img    src='G_9.jpg' height='90'> <img    src='G_1.jpg' height='90'> <img    src='G_5.jpg' height='90'> <img id='selected'    src='G_3.jpg' height='90'> <img src='G_7.jpg' height='90'>","null","Learning example 1",""
"","","","","","html-button-response","156","728761","0.0-120.0","25","1","2025-01-22 20:19:54","6073afb29c8d06c5d8f22ae9f1371ff8","107.180.176.71","Mozilla/5.0 (Windows NT 10.0; Win64; x64; rv:134.0) Gecko/20100101 Firefox/134.0","","Firefox","134.0","Windows","10.0","https://app.prolific.com/","en-US,en;q=0.5","6788d757838ec1fd4189dc63","679147d2997803490f072fae","679152da5a9877d2deb3f842","","null","<img    src='G_9.jpg' height='90'> <img    src='G_1.jpg' height='90'> <img    src='G_5.jpg' height='90'> <img id='selected'    src='G_3.jpg' height='90'> <img id='selected' src='G_7.jpg' height='90'>","null","Learning example 1",""
"","","","","","html-button-response","157","729084","0.0-121.0","25","1","2025-01-22 20:19:54","6073afb29c8d06c5d8f22ae9f1371ff8","107.180.176.71","Mozilla/5.0 (Windows NT 10.0; Win64; x64; rv:134.0) Gecko/20100101 Firefox/134.0","","Firefox","134.0","Windows","10.0","https://app.prolific.com/","en-US,en;q=0.5","6788d757838ec1fd4189dc63","679147d2997803490f072fae","679152da5a9877d2deb3f842","","null","<img    src='G_9.jpg' height='90'> <img    src='G_1.jpg' height='90'> <img    src='G_5.jpg' height='90'> <img id='swapped' src='G_7.jpg' height='90'> <img id='swapped'    src='G_3.jpg' height='90'>","null","Learning example 1",""
"","","","","","html-button-response","158","729403","0.0-122.0-0.0-0.0","25","1","2025-01-22 20:19:54","6073afb29c8d06c5d8f22ae9f1371ff8","107.180.176.71","Mozilla/5.0 (Windows NT 10.0; Win64; x64; rv:134.0) Gecko/20100101 Firefox/134.0","","Firefox","134.0","Windows","10.0","https://app.prolific.com/","en-US,en;q=0.5","6788d757838ec1fd4189dc63","679147d2997803490f072fae","679152da5a9877d2deb3f842","","315","<img    src='G_9.jpg' height='90'> <img    src='G_1.jpg' height='90'> <img    src='G_5.jpg' height='90'> <img id='swapped' src='G_7.jpg' height='90'> <img id='swapped'    src='G_3.jpg' height='90'>","3","Learning example 1",""
"","","","","","html-button-response","159","729918","0.0-122.1-0.1-0.1","25","1","2025-01-22 20:19:54","6073afb29c8d06c5d8f22ae9f1371ff8","107.180.176.71","Mozilla/5.0 (Windows NT 10.0; Win64; x64; rv:134.0) Gecko/20100101 Firefox/134.0","","Firefox","134.0","Windows","10.0","https://app.prolific.com/","en-US,en;q=0.5","6788d757838ec1fd4189dc63","679147d2997803490f072fae","679152da5a9877d2deb3f842","","500","<img    src='G_9.jpg' height='90'> <img    src='G_1.jpg' height='90'> <img    src='G_5.jpg' height='90'> <img id='swapped' src='G_7.jpg' height='90'> <img id='swapped'    src='G_3.jpg' height='90'>","4","Learning example 1",""
"","","","","","html-button-response","160","730138","0.0-123.0","25","1","2025-01-22 20:19:54","6073afb29c8d06c5d8f22ae9f1371ff8","107.180.176.71","Mozilla/5.0 (Windows NT 10.0; Win64; x64; rv:134.0) Gecko/20100101 Firefox/134.0","","Firefox","134.0","Windows","10.0","https://app.prolific.com/","en-US,en;q=0.5","6788d757838ec1fd4189dc63","679147d2997803490f072fae","679152da5a9877d2deb3f842","","null","<img    src='G_9.jpg' height='90'> <img    src='G_1.jpg' height='90'> <img    src='G_5.jpg' height='90'> <img  src='G_7.jpg' height='90'> <img     src='G_3.jpg' height='90'>","null","Learning example 1",""
"","","","","","html-button-response","161","730565","0.0-124.0","25","1","2025-01-22 20:19:54","6073afb29c8d06c5d8f22ae9f1371ff8","107.180.176.71","Mozilla/5.0 (Windows NT 10.0; Win64; x64; rv:134.0) Gecko/20100101 Firefox/134.0","","Firefox","134.0","Windows","10.0","https://app.prolific.com/","en-US,en;q=0.5","6788d757838ec1fd4189dc63","679147d2997803490f072fae","679152da5a9877d2deb3f842","","null","<img    src='G_9.jpg' height='90'> <img    src='G_1.jpg' height='90'> <img id='selected'    src='G_5.jpg' height='90'> <img  src='G_7.jpg' height='90'> <img     src='G_3.jpg' height='90'>","null","Learning example 1",""
"","","","","","html-button-response","162","730881","0.0-125.0","25","1","2025-01-22 20:19:54","6073afb29c8d06c5d8f22ae9f1371ff8","107.180.176.71","Mozilla/5.0 (Windows NT 10.0; Win64; x64; rv:134.0) Gecko/20100101 Firefox/134.0","","Firefox","134.0","Windows","10.0","https://app.prolific.com/","en-US,en;q=0.5","6788d757838ec1fd4189dc63","679147d2997803490f072fae","679152da5a9877d2deb3f842","","null","<img    src='G_9.jpg' height='90'> <img    src='G_1.jpg' height='90'> <img id='selected'    src='G_5.jpg' height='90'> <img id='selected'  src='G_7.jpg' height='90'> <img     src='G_3.jpg' height='90'>","null","Learning example 1",""
"","","","","","html-button-response","163","731190","0.0-126.0","25","1","2025-01-22 20:19:54","6073afb29c8d06c5d8f22ae9f1371ff8","107.180.176.71","Mozilla/5.0 (Windows NT 10.0; Win64; x64; rv:134.0) Gecko/20100101 Firefox/134.0","","Firefox","134.0","Windows","10.0","https://app.prolific.com/","en-US,en;q=0.5","6788d757838ec1fd4189dc63","679147d2997803490f072fae","679152da5a9877d2deb3f842","","null","<img    src='G_9.jpg' height='90'> <img    src='G_1.jpg' height='90'> <img id='swapped'  src='G_7.jpg' height='90'> <img id='swapped'    src='G_5.jpg' height='90'> <img     src='G_3.jpg' height='90'>","null","Learning example 1",""
"","","","","","html-button-response","164","731518","0.0-127.0-0.0-0.0","25","1","2025-01-22 20:19:54","6073afb29c8d06c5d8f22ae9f1371ff8","107.180.176.71","Mozilla/5.0 (Windows NT 10.0; Win64; x64; rv:134.0) Gecko/20100101 Firefox/134.0","","Firefox","134.0","Windows","10.0","https://app.prolific.com/","en-US,en;q=0.5","6788d757838ec1fd4189dc63","679147d2997803490f072fae","679152da5a9877d2deb3f842","","316","<img    src='G_9.jpg' height='90'> <img    src='G_1.jpg' height='90'> <img id='swapped'  src='G_7.jpg' height='90'> <img id='swapped'    src='G_5.jpg' height='90'> <img     src='G_3.jpg' height='90'>","2","Learning example 1",""
"","","","","","html-button-response","165","732699","0.0-127.1-0.1-0.1","25","1","2025-01-22 20:19:54","6073afb29c8d06c5d8f22ae9f1371ff8","107.180.176.71","Mozilla/5.0 (Windows NT 10.0; Win64; x64; rv:134.0) Gecko/20100101 Firefox/134.0","","Firefox","134.0","Windows","10.0","https://app.prolific.com/","en-US,en;q=0.5","6788d757838ec1fd4189dc63","679147d2997803490f072fae","679152da5a9877d2deb3f842","","1159","<img    src='G_9.jpg' height='90'> <img    src='G_1.jpg' height='90'> <img id='swapped'  src='G_7.jpg' height='90'> <img id='swapped'    src='G_5.jpg' height='90'> <img     src='G_3.jpg' height='90'>","3","Learning example 1",""
"","","","","","html-button-response","166","732919","0.0-128.0","25","1","2025-01-22 20:19:54","6073afb29c8d06c5d8f22ae9f1371ff8","107.180.176.71","Mozilla/5.0 (Windows NT 10.0; Win64; x64; rv:134.0) Gecko/20100101 Firefox/134.0","","Firefox","134.0","Windows","10.0","https://app.prolific.com/","en-US,en;q=0.5","6788d757838ec1fd4189dc63","679147d2997803490f072fae","679152da5a9877d2deb3f842","","null","<img    src='G_9.jpg' height='90'> <img    src='G_1.jpg' height='90'> <img   src='G_7.jpg' height='90'> <img     src='G_5.jpg' height='90'> <img     src='G_3.jpg' height='90'>","null","Learning example 1",""
"","","","","","html-button-response","167","733337","0.0-129.0","25","1","2025-01-22 20:19:54","6073afb29c8d06c5d8f22ae9f1371ff8","107.180.176.71","Mozilla/5.0 (Windows NT 10.0; Win64; x64; rv:134.0) Gecko/20100101 Firefox/134.0","","Firefox","134.0","Windows","10.0","https://app.prolific.com/","en-US,en;q=0.5","6788d757838ec1fd4189dc63","679147d2997803490f072fae","679152da5a9877d2deb3f842","","null","<img    src='G_9.jpg' height='90'> <img id='selected'    src='G_1.jpg' height='90'> <img   src='G_7.jpg' height='90'> <img     src='G_5.jpg' height='90'> <img     src='G_3.jpg' height='90'>","null","Learning example 1",""
"","","","","","html-button-response","168","733664","0.0-130.0","25","1","2025-01-22 20:19:54","6073afb29c8d06c5d8f22ae9f1371ff8","107.180.176.71","Mozilla/5.0 (Windows NT 10.0; Win64; x64; rv:134.0) Gecko/20100101 Firefox/134.0","","Firefox","134.0","Windows","10.0","https://app.prolific.com/","en-US,en;q=0.5","6788d757838ec1fd4189dc63","679147d2997803490f072fae","679152da5a9877d2deb3f842","","null","<img    src='G_9.jpg' height='90'> <img id='selected'    src='G_1.jpg' height='90'> <img id='selected'   src='G_7.jpg' height='90'> <img     src='G_5.jpg' height='90'> <img     src='G_3.jpg' height='90'>","null","Learning example 1",""
