"success","timeout","failed_images","failed_audio","failed_video","trial_type","trial_index","time_elapsed","internal_node_id","run_id","condition","recorded_at","source_code_version","ip","user_agent","device","browser","browser_version","platform","platform_version","referer","accept_language","PROLIFIC_PID","STUDY_ID","SESSION_ID","view_history","rt","stimulus","response","phase","question_order"
"true","false","[]","[]","[]","preload","0","3834","0.0-0.0","26","1","2025-01-23 06:30:07","6073afb29c8d06c5d8f22ae9f1371ff8","93.113.181.115","Mozilla/5.0 (Windows NT 10.0; Win64; x64) AppleWebKit/537.36 (KHTML, like Gecko) Chrome/131.0.0.0 Safari/537.36","WebKit","Chrome","131.0.0.0","Windows","10.0","https://app.prolific.com/","en-US,en;q=0.9","679146dcbca56d462eccdfef","679147d2997803490f072fae","6791e1e1915adb110c37e663","","","","","",""
"","","","","","instructions","1","25124","0.0-1.0","26","1","2025-01-23 06:30:07","6073afb29c8d06c5d8f22ae9f1371ff8","93.113.181.115","Mozilla/5.0 (Windows NT 10.0; Win64; x64) AppleWebKit/537.36 (KHTML, like Gecko) Chrome/131.0.0.0 Safari/537.36","WebKit","Chrome","131.0.0.0","Windows","10.0","https://app.prolific.com/","en-US,en;q=0.9","679146dcbca56d462eccdfef","679147d2997803490f072fae","6791e1e1915adb110c37e663","[{""page_index"":0,""viewing_time"":21287}]","21287","","","",""
"","","","","","html-keyboard-response","2","25642","0.0-2.0","26","1","2025-01-23 06:30:07","6073afb29c8d06c5d8f22ae9f1371ff8","93.113.181.115","Mozilla/5.0 (Windows NT 10.0; Win64; x64) AppleWebKit/537.36 (KHTML, like Gecko) Chrome/131.0.0.0 Safari/537.36","WebKit","Chrome","131.0.0.0","Windows","10.0","https://app.prolific.com/","en-US,en;q=0.9","679146dcbca56d462eccdfef","679147d2997803490f072fae","6791e1e1915adb110c37e663","","null","<p> + <p/>","null","",""
"","","","","","instructions","3","67335","0.0-3.0","26","1","2025-01-23 06:30:07","6073afb29c8d06c5d8f22ae9f1371ff8","93.113.181.115","Mozilla/5.0 (Windows NT 10.0; Win64; x64) AppleWebKit/537.36 (KHTML, like Gecko) Chrome/131.0.0.0 Safari/537.36","WebKit","Chrome","131.0.0.0","Windows","10.0","https://app.prolific.com/","en-US,en;q=0.9","679146dcbca56d462eccdfef","679147d2997803490f072fae","6791e1e1915adb110c37e663","[{""page_index"":0,""viewing_time"":3479},{""page_index"":1,""viewing_time"":9955},{""page_index"":2,""viewing_time"":11306},{""page_index"":3,""viewing_time"":6731},{""page_index"":4,""viewing_time"":10219}]","41690","","","",""
"","","","","","html-button-response","4","97547","0.0-4.0-0.0-0.0","26","1","2025-01-23 06:30:07","6073afb29c8d06c5d8f22ae9f1371ff8","93.113.181.115","Mozilla/5.0 (Windows NT 10.0; Win64; x64) AppleWebKit/537.36 (KHTML, like Gecko) Chrome/131.0.0.0 Safari/537.36","WebKit","Chrome","131.0.0.0","Windows","10.0","https://app.prolific.com/","en-US,en;q=0.9","679146dcbca56d462eccdfef","679147d2997803490f072fae","6791e1e1915adb110c37e663","","30208","","2","Intro Trial",""
"","","","","","html-button-response","5","98788","0.0-4.1-0.1-0.1","26","1","2025-01-23 06:30:07","6073afb29c8d06c5d8f22ae9f1371ff8","93.113.181.115","Mozilla/5.0 (Windows NT 10.0; Win64; x64) AppleWebKit/537.36 (KHTML, like Gecko) Chrome/131.0.0.0 Safari/537.36","WebKit","Chrome","131.0.0.0","Windows","10.0","https://app.prolific.com/","en-US,en;q=0.9","679146dcbca56d462eccdfef","679147d2997803490f072fae","6791e1e1915adb110c37e663","","1239","","3","Intro Trial",""
"","","","","","html-button-response","6","101313","0.0-4.2-0.2-0.2","26","1","2025-01-23 06:30:07","6073afb29c8d06c5d8f22ae9f1371ff8","93.113.181.115","Mozilla/5.0 (Windows NT 10.0; Win64; x64) AppleWebKit/537.36 (KHTML, like Gecko) Chrome/131.0.0.0 Safari/537.36","WebKit","Chrome","131.0.0.0","Windows","10.0","https://app.prolific.com/","en-US,en;q=0.9","679146dcbca56d462eccdfef","679147d2997803490f072fae","6791e1e1915adb110c37e663","","2522","","3","Intro Trial",""
"","","","","","html-button-response","7","111491","0.0-4.3-0.3-0.3","26","1","2025-01-23 06:30:07","6073afb29c8d06c5d8f22ae9f1371ff8","93.113.181.115","Mozilla/5.0 (Windows NT 10.0; Win64; x64) AppleWebKit/537.36 (KHTML, like Gecko) Chrome/131.0.0.0 Safari/537.36","WebKit","Chrome","131.0.0.0","Windows","10.0","https://app.prolific.com/","en-US,en;q=0.9","679146dcbca56d462eccdfef","679147d2997803490f072fae","6791e1e1915adb110c37e663","","10176","","2","Intro Trial",""
"","","","","","html-button-response","8","118742","0.0-4.4-0.4-0.4","26","1","2025-01-23 06:30:07","6073afb29c8d06c5d8f22ae9f1371ff8","93.113.181.115","Mozilla/5.0 (Windows NT 10.0; Win64; x64) AppleWebKit/537.36 (KHTML, like Gecko) Chrome/131.0.0.0 Safari/537.36","WebKit","Chrome","131.0.0.0","Windows","10.0","https://app.prolific.com/","en-US,en;q=0.9","679146dcbca56d462eccdfef","679147d2997803490f072fae","6791e1e1915adb110c37e663","","7247","","2","Intro Trial",""
"","","","","","html-button-response","9","126214","0.0-4.5-0.5-0.5","26","1","2025-01-23 06:30:07","6073afb29c8d06c5d8f22ae9f1371ff8","93.113.181.115","Mozilla/5.0 (Windows NT 10.0; Win64; x64) AppleWebKit/537.36 (KHTML, like Gecko) Chrome/131.0.0.0 Safari/537.36","WebKit","Chrome","131.0.0.0","Windows","10.0","https://app.prolific.com/","en-US,en;q=0.9","679146dcbca56d462eccdfef","679147d2997803490f072fae","6791e1e1915adb110c37e663","","7470","","3","Intro Trial",""
"","","","","","html-button-response","10","127562","0.0-4.6-0.6-0.6","26","1","2025-01-23 06:30:07","6073afb29c8d06c5d8f22ae9f1371ff8","93.113.181.115","Mozilla/5.0 (Windows NT 10.0; Win64; x64) AppleWebKit/537.36 (KHTML, like Gecko) Chrome/131.0.0.0 Safari/537.36","WebKit","Chrome","131.0.0.0","Windows","10.0","https://app.prolific.com/","en-US,en;q=0.9","679146dcbca56d462eccdfef","679147d2997803490f072fae","6791e1e1915adb110c37e663","","1344","","3","Intro Trial",""
"","","","","","html-button-response","11","128647","0.0-4.7-0.7-0.7","26","1","2025-01-23 06:30:07","6073afb29c8d06c5d8f22ae9f1371ff8","93.113.181.115","Mozilla/5.0 (Windows NT 10.0; Win64; x64) AppleWebKit/537.36 (KHTML, like Gecko) Chrome/131.0.0.0 Safari/537.36","WebKit","Chrome","131.0.0.0","Windows","10.0","https://app.prolific.com/","en-US,en;q=0.9","679146dcbca56d462eccdfef","679147d2997803490f072fae","6791e1e1915adb110c37e663","","1083","","5","Intro Trial",""
"","","","","","html-keyboard-response","12","147049","0.0-5.0","26","1","2025-01-23 06:30:07","6073afb29c8d06c5d8f22ae9f1371ff8","93.113.181.115","Mozilla/5.0 (Windows NT 10.0; Win64; x64) AppleWebKit/537.36 (KHTML, like Gecko) Chrome/131.0.0.0 Safari/537.36","WebKit","Chrome","131.0.0.0","Windows","10.0","https://app.prolific.com/","en-US,en;q=0.9","679146dcbca56d462eccdfef","679147d2997803490f072fae","6791e1e1915adb110c37e663","","18399","[""You sorted incorrectly by using the balance 3 times. <br><br> <img src='G_1.jpg' height='90'><img src='G_2.jpg' height='90'><img src='G_3.jpg' height='90'><img src='G_4.jpg' height='90'><img src='G_5.jpg' height='90'><br><br> Your final order is 4,2,3,5,1<br><br><br>Omgne Sort in this game will allow you to sort correctly by using the balance 8 times. Press Enter to learn it!""]","enter","",""
"","","","","","html-keyboard-response","13","154050","0.0-6.0","26","1","2025-01-23 06:30:07","6073afb29c8d06c5d8f22ae9f1371ff8","93.113.181.115","Mozilla/5.0 (Windows NT 10.0; Win64; x64) AppleWebKit/537.36 (KHTML, like Gecko) Chrome/131.0.0.0 Safari/537.36","WebKit","Chrome","131.0.0.0","Windows","10.0","https://app.prolific.com/","en-US,en;q=0.9","679146dcbca56d462eccdfef","679147d2997803490f072fae","6791e1e1915adb110c37e663","","6999","<p>Welcome to the learning phase! <br><br> You will learn by four examples. The following learning trials will not be used to calculate your performance. <br><br> Press Enter to continue.<p/>","enter","",""
"","","","","","html-keyboard-response","14","161485","0.0-7.0","26","1","2025-01-23 06:30:07","6073afb29c8d06c5d8f22ae9f1371ff8","93.113.181.115","Mozilla/5.0 (Windows NT 10.0; Win64; x64) AppleWebKit/537.36 (KHTML, like Gecko) Chrome/131.0.0.0 Safari/537.36","WebKit","Chrome","131.0.0.0","Windows","10.0","https://app.prolific.com/","en-US,en;q=0.9","679146dcbca56d462eccdfef","679147d2997803490f072fae","6791e1e1915adb110c37e663","","7433","[""Example 1<br><br>You will watch Omnge Sort in action. Try to identify any patterns in the comparisons made by this method. <br><br>Press Enter to continue.""]","enter","",""
"","","","","","html-keyboard-response","15","162000","0.0-8.0","26","1","2025-01-23 06:30:07","6073afb29c8d06c5d8f22ae9f1371ff8","93.113.181.115","Mozilla/5.0 (Windows NT 10.0; Win64; x64) AppleWebKit/537.36 (KHTML, like Gecko) Chrome/131.0.0.0 Safari/537.36","WebKit","Chrome","131.0.0.0","Windows","10.0","https://app.prolific.com/","en-US,en;q=0.9","679146dcbca56d462eccdfef","679147d2997803490f072fae","6791e1e1915adb110c37e663","","null","<img id='selected' src='G_9.jpg' height='90'> <img src='G_5.jpg' height='90'> <img src='G_3.jpg' height='90'> <img src='G_7.jpg' height='90'> <img src='G_1.jpg' height='90'>","null","Animation0",""
"","","","","","html-keyboard-response","16","162512","0.0-9.0","26","1","2025-01-23 06:30:07","6073afb29c8d06c5d8f22ae9f1371ff8","93.113.181.115","Mozilla/5.0 (Windows NT 10.0; Win64; x64) AppleWebKit/537.36 (KHTML, like Gecko) Chrome/131.0.0.0 Safari/537.36","WebKit","Chrome","131.0.0.0","Windows","10.0","https://app.prolific.com/","en-US,en;q=0.9","679146dcbca56d462eccdfef","679147d2997803490f072fae","6791e1e1915adb110c37e663","","null","<img id='selected' src='G_9.jpg' height='90'> <img id='selected' src='G_5.jpg' height='90'> <img src='G_3.jpg' height='90'> <img src='G_7.jpg' height='90'> <img src='G_1.jpg' height='90'>","null","Animation0",""
"","","","","","html-keyboard-response","17","163020","0.0-10.0","26","1","2025-01-23 06:30:07","6073afb29c8d06c5d8f22ae9f1371ff8","93.113.181.115","Mozilla/5.0 (Windows NT 10.0; Win64; x64) AppleWebKit/537.36 (KHTML, like Gecko) Chrome/131.0.0.0 Safari/537.36","WebKit","Chrome","131.0.0.0","Windows","10.0","https://app.prolific.com/","en-US,en;q=0.9","679146dcbca56d462eccdfef","679147d2997803490f072fae","6791e1e1915adb110c37e663","","null","<img id='swapped' src='G_5.jpg' height='90'> <img id='swapped' src='G_9.jpg' height='90'> <img src='G_3.jpg' height='90'> <img src='G_7.jpg' height='90'> <img src='G_1.jpg' height='90'>","null","Animation0",""
"","","","","","html-keyboard-response","18","163335","0.0-11.0","26","1","2025-01-23 06:30:07","6073afb29c8d06c5d8f22ae9f1371ff8","93.113.181.115","Mozilla/5.0 (Windows NT 10.0; Win64; x64) AppleWebKit/537.36 (KHTML, like Gecko) Chrome/131.0.0.0 Safari/537.36","WebKit","Chrome","131.0.0.0","Windows","10.0","https://app.prolific.com/","en-US,en;q=0.9","679146dcbca56d462eccdfef","679147d2997803490f072fae","6791e1e1915adb110c37e663","","null","<img  src='G_5.jpg' height='90'> <img  src='G_9.jpg' height='90'> <img src='G_3.jpg' height='90'> <img src='G_7.jpg' height='90'> <img src='G_1.jpg' height='90'>","null","Animation0",""
"","","","","","html-keyboard-response","19","163842","0.0-12.0","26","1","2025-01-23 06:30:07","6073afb29c8d06c5d8f22ae9f1371ff8","93.113.181.115","Mozilla/5.0 (Windows NT 10.0; Win64; x64) AppleWebKit/537.36 (KHTML, like Gecko) Chrome/131.0.0.0 Safari/537.36","WebKit","Chrome","131.0.0.0","Windows","10.0","https://app.prolific.com/","en-US,en;q=0.9","679146dcbca56d462eccdfef","679147d2997803490f072fae","6791e1e1915adb110c37e663","","null","<img  src='G_5.jpg' height='90'> <img id='selected'  src='G_9.jpg' height='90'> <img src='G_3.jpg' height='90'> <img src='G_7.jpg' height='90'> <img src='G_1.jpg' height='90'>","null","Animation0",""
"","","","","","html-keyboard-response","20","164350","0.0-13.0","26","1","2025-01-23 06:30:07","6073afb29c8d06c5d8f22ae9f1371ff8","93.113.181.115","Mozilla/5.0 (Windows NT 10.0; Win64; x64) AppleWebKit/537.36 (KHTML, like Gecko) Chrome/131.0.0.0 Safari/537.36","WebKit","Chrome","131.0.0.0","Windows","10.0","https://app.prolific.com/","en-US,en;q=0.9","679146dcbca56d462eccdfef","679147d2997803490f072fae","6791e1e1915adb110c37e663","","null","<img  src='G_5.jpg' height='90'> <img id='selected'  src='G_9.jpg' height='90'> <img id='selected' src='G_3.jpg' height='90'> <img src='G_7.jpg' height='90'> <img src='G_1.jpg' height='90'>","null","Animation0",""
"","","","","","html-keyboard-response","21","164859","0.0-14.0","26","1","2025-01-23 06:30:07","6073afb29c8d06c5d8f22ae9f1371ff8","93.113.181.115","Mozilla/5.0 (Windows NT 10.0; Win64; x64) AppleWebKit/537.36 (KHTML, like Gecko) Chrome/131.0.0.0 Safari/537.36","WebKit","Chrome","131.0.0.0","Windows","10.0","https://app.prolific.com/","en-US,en;q=0.9","679146dcbca56d462eccdfef","679147d2997803490f072fae","6791e1e1915adb110c37e663","","null","<img  src='G_5.jpg' height='90'> <img id='selected'  src='G_9.jpg' height='90'> <img id='selected' src='G_3.jpg' height='90'> <img src='G_7.jpg' height='90'> <img src='G_1.jpg' height='90'>","null","Animation0",""
"","","","","","html-keyboard-response","22","165163","0.0-15.0","26","1","2025-01-23 06:30:07","6073afb29c8d06c5d8f22ae9f1371ff8","93.113.181.115","Mozilla/5.0 (Windows NT 10.0; Win64; x64) AppleWebKit/537.36 (KHTML, like Gecko) Chrome/131.0.0.0 Safari/537.36","WebKit","Chrome","131.0.0.0","Windows","10.0","https://app.prolific.com/","en-US,en;q=0.9","679146dcbca56d462eccdfef","679147d2997803490f072fae","6791e1e1915adb110c37e663","","null","<img  src='G_5.jpg' height='90'> <img   src='G_9.jpg' height='90'> <img  src='G_3.jpg' height='90'> <img src='G_7.jpg' height='90'> <img src='G_1.jpg' height='90'>","null","Animation0",""
"","","","","","html-keyboard-response","23","165680","0.0-16.0","26","1","2025-01-23 06:30:07","6073afb29c8d06c5d8f22ae9f1371ff8","93.113.181.115","Mozilla/5.0 (Windows NT 10.0; Win64; x64) AppleWebKit/537.36 (KHTML, like Gecko) Chrome/131.0.0.0 Safari/537.36","WebKit","Chrome","131.0.0.0","Windows","10.0","https://app.prolific.com/","en-US,en;q=0.9","679146dcbca56d462eccdfef","679147d2997803490f072fae","6791e1e1915adb110c37e663","","null","<img  src='G_5.jpg' height='90'> <img   src='G_9.jpg' height='90'> <img id='selected'  src='G_3.jpg' height='90'> <img src='G_7.jpg' height='90'> <img src='G_1.jpg' height='90'>","null","Animation0",""
"","","","","","html-keyboard-response","24","166191","0.0-17.0","26","1","2025-01-23 06:30:07","6073afb29c8d06c5d8f22ae9f1371ff8","93.113.181.115","Mozilla/5.0 (Windows NT 10.0; Win64; x64) AppleWebKit/537.36 (KHTML, like Gecko) Chrome/131.0.0.0 Safari/537.36","WebKit","Chrome","131.0.0.0","Windows","10.0","https://app.prolific.com/","en-US,en;q=0.9","679146dcbca56d462eccdfef","679147d2997803490f072fae","6791e1e1915adb110c37e663","","null","<img  src='G_5.jpg' height='90'> <img   src='G_9.jpg' height='90'> <img id='selected'  src='G_3.jpg' height='90'> <img id='selected' src='G_7.jpg' height='90'> <img src='G_1.jpg' height='90'>","null","Animation0",""
"","","","","","html-keyboard-response","25","166695","0.0-18.0","26","1","2025-01-23 06:30:07","6073afb29c8d06c5d8f22ae9f1371ff8","93.113.181.115","Mozilla/5.0 (Windows NT 10.0; Win64; x64) AppleWebKit/537.36 (KHTML, like Gecko) Chrome/131.0.0.0 Safari/537.36","WebKit","Chrome","131.0.0.0","Windows","10.0","https://app.prolific.com/","en-US,en;q=0.9","679146dcbca56d462eccdfef","679147d2997803490f072fae","6791e1e1915adb110c37e663","","null","<img  src='G_5.jpg' height='90'> <img   src='G_9.jpg' height='90'> <img id='selected'  src='G_3.jpg' height='90'> <img id='selected' src='G_7.jpg' height='90'> <img src='G_1.jpg' height='90'>","null","Animation0",""
"","","","","","html-keyboard-response","26","167001","0.0-19.0","26","1","2025-01-23 06:30:07","6073afb29c8d06c5d8f22ae9f1371ff8","93.113.181.115","Mozilla/5.0 (Windows NT 10.0; Win64; x64) AppleWebKit/537.36 (KHTML, like Gecko) Chrome/131.0.0.0 Safari/537.36","WebKit","Chrome","131.0.0.0","Windows","10.0","https://app.prolific.com/","en-US,en;q=0.9","679146dcbca56d462eccdfef","679147d2997803490f072fae","6791e1e1915adb110c37e663","","null","<img  src='G_5.jpg' height='90'> <img   src='G_9.jpg' height='90'> <img   src='G_3.jpg' height='90'> <img  src='G_7.jpg' height='90'> <img src='G_1.jpg' height='90'>","null","Animation0",""
"","","","","","html-keyboard-response","27","167516","0.0-20.0","26","1","2025-01-23 06:30:07","6073afb29c8d06c5d8f22ae9f1371ff8","93.113.181.115","Mozilla/5.0 (Windows NT 10.0; Win64; x64) AppleWebKit/537.36 (KHTML, like Gecko) Chrome/131.0.0.0 Safari/537.36","WebKit","Chrome","131.0.0.0","Windows","10.0","https://app.prolific.com/","en-US,en;q=0.9","679146dcbca56d462eccdfef","679147d2997803490f072fae","6791e1e1915adb110c37e663","","null","<img  src='G_5.jpg' height='90'> <img   src='G_9.jpg' height='90'> <img   src='G_3.jpg' height='90'> <img id='selected'  src='G_7.jpg' height='90'> <img src='G_1.jpg' height='90'>","null","Animation0",""
"","","","","","html-keyboard-response","28","168021","0.0-21.0","26","1","2025-01-23 06:30:07","6073afb29c8d06c5d8f22ae9f1371ff8","93.113.181.115","Mozilla/5.0 (Windows NT 10.0; Win64; x64) AppleWebKit/537.36 (KHTML, like Gecko) Chrome/131.0.0.0 Safari/537.36","WebKit","Chrome","131.0.0.0","Windows","10.0","https://app.prolific.com/","en-US,en;q=0.9","679146dcbca56d462eccdfef","679147d2997803490f072fae","6791e1e1915adb110c37e663","","null","<img  src='G_5.jpg' height='90'> <img   src='G_9.jpg' height='90'> <img   src='G_3.jpg' height='90'> <img id='selected'  src='G_7.jpg' height='90'> <img id='selected' src='G_1.jpg' height='90'>","null","Animation0",""
"","","","","","html-keyboard-response","29","168537","0.0-22.0","26","1","2025-01-23 06:30:07","6073afb29c8d06c5d8f22ae9f1371ff8","93.113.181.115","Mozilla/5.0 (Windows NT 10.0; Win64; x64) AppleWebKit/537.36 (KHTML, like Gecko) Chrome/131.0.0.0 Safari/537.36","WebKit","Chrome","131.0.0.0","Windows","10.0","https://app.prolific.com/","en-US,en;q=0.9","679146dcbca56d462eccdfef","679147d2997803490f072fae","6791e1e1915adb110c37e663","","null","<img  src='G_5.jpg' height='90'> <img   src='G_9.jpg' height='90'> <img   src='G_3.jpg' height='90'> <img id='selected'  src='G_7.jpg' height='90'> <img id='selected' src='G_1.jpg' height='90'>","null","Animation0",""
"","","","","","html-keyboard-response","30","168854","0.0-23.0","26","1","2025-01-23 06:30:07","6073afb29c8d06c5d8f22ae9f1371ff8","93.113.181.115","Mozilla/5.0 (Windows NT 10.0; Win64; x64) AppleWebKit/537.36 (KHTML, like Gecko) Chrome/131.0.0.0 Safari/537.36","WebKit","Chrome","131.0.0.0","Windows","10.0","https://app.prolific.com/","en-US,en;q=0.9","679146dcbca56d462eccdfef","679147d2997803490f072fae","6791e1e1915adb110c37e663","","null","<img  src='G_5.jpg' height='90'> <img   src='G_9.jpg' height='90'> <img   src='G_3.jpg' height='90'> <img   src='G_7.jpg' height='90'> <img  src='G_1.jpg' height='90'>","null","Animation0",""
"","","","","","html-keyboard-response","31","174684","0.0-24.0","26","1","2025-01-23 06:30:07","6073afb29c8d06c5d8f22ae9f1371ff8","93.113.181.115","Mozilla/5.0 (Windows NT 10.0; Win64; x64) AppleWebKit/537.36 (KHTML, like Gecko) Chrome/131.0.0.0 Safari/537.36","WebKit","Chrome","131.0.0.0","Windows","10.0","https://app.prolific.com/","en-US,en;q=0.9","679146dcbca56d462eccdfef","679147d2997803490f072fae","6791e1e1915adb110c37e663","","5827","[""Did you notice any patterns? <br><br>Press Enter to watch that example again and follow the steps of Omgne Sort.""]","enter","",""
"","","","","","html-button-response","32","175089","0.0-25.0","26","1","2025-01-23 06:30:07","6073afb29c8d06c5d8f22ae9f1371ff8","93.113.181.115","Mozilla/5.0 (Windows NT 10.0; Win64; x64) AppleWebKit/537.36 (KHTML, like Gecko) Chrome/131.0.0.0 Safari/537.36","WebKit","Chrome","131.0.0.0","Windows","10.0","https://app.prolific.com/","en-US,en;q=0.9","679146dcbca56d462eccdfef","679147d2997803490f072fae","6791e1e1915adb110c37e663","","null","<img id='selected' src='G_9.jpg' height='90'> <img src='G_5.jpg' height='90'> <img src='G_3.jpg' height='90'> <img src='G_7.jpg' height='90'> <img src='G_1.jpg' height='90'>","null","Learning example 0",""
"","","","","","html-button-response","33","175401","0.0-26.0","26","1","2025-01-23 06:30:07","6073afb29c8d06c5d8f22ae9f1371ff8","93.113.181.115","Mozilla/5.0 (Windows NT 10.0; Win64; x64) AppleWebKit/537.36 (KHTML, like Gecko) Chrome/131.0.0.0 Safari/537.36","WebKit","Chrome","131.0.0.0","Windows","10.0","https://app.prolific.com/","en-US,en;q=0.9","679146dcbca56d462eccdfef","679147d2997803490f072fae","6791e1e1915adb110c37e663","","null","<img id='selected' src='G_9.jpg' height='90'> <img id='selected' src='G_5.jpg' height='90'> <img src='G_3.jpg' height='90'> <img src='G_7.jpg' height='90'> <img src='G_1.jpg' height='90'>","null","Learning example 0",""
"","","","","","html-button-response","34","175711","0.0-27.0","26","1","2025-01-23 06:30:07","6073afb29c8d06c5d8f22ae9f1371ff8","93.113.181.115","Mozilla/5.0 (Windows NT 10.0; Win64; x64) AppleWebKit/537.36 (KHTML, like Gecko) Chrome/131.0.0.0 Safari/537.36","WebKit","Chrome","131.0.0.0","Windows","10.0","https://app.prolific.com/","en-US,en;q=0.9","679146dcbca56d462eccdfef","679147d2997803490f072fae","6791e1e1915adb110c37e663","","null","<img id='swapped' src='G_5.jpg' height='90'> <img id='swapped' src='G_9.jpg' height='90'> <img src='G_3.jpg' height='90'> <img src='G_7.jpg' height='90'> <img src='G_1.jpg' height='90'>","null","Learning example 0",""
"","","","","","html-button-response","35","208026","0.0-28.0-0.0-0.0","26","1","2025-01-23 06:30:07","6073afb29c8d06c5d8f22ae9f1371ff8","93.113.181.115","Mozilla/5.0 (Windows NT 10.0; Win64; x64) AppleWebKit/537.36 (KHTML, like Gecko) Chrome/131.0.0.0 Safari/537.36","WebKit","Chrome","131.0.0.0","Windows","10.0","https://app.prolific.com/","en-US,en;q=0.9","679146dcbca56d462eccdfef","679147d2997803490f072fae","6791e1e1915adb110c37e663","","32308","<img id='swapped' src='G_5.jpg' height='90'> <img id='swapped' src='G_9.jpg' height='90'> <img src='G_3.jpg' height='90'> <img src='G_7.jpg' height='90'> <img src='G_1.jpg' height='90'>","0","Learning example 0",""
"","","","","","html-button-response","36","211283","0.0-28.1-0.1-0.1","26","1","2025-01-23 06:30:07","6073afb29c8d06c5d8f22ae9f1371ff8","93.113.181.115","Mozilla/5.0 (Windows NT 10.0; Win64; x64) AppleWebKit/537.36 (KHTML, like Gecko) Chrome/131.0.0.0 Safari/537.36","WebKit","Chrome","131.0.0.0","Windows","10.0","https://app.prolific.com/","en-US,en;q=0.9","679146dcbca56d462eccdfef","679147d2997803490f072fae","6791e1e1915adb110c37e663","","3252","<img id='swapped' src='G_5.jpg' height='90'> <img id='swapped' src='G_9.jpg' height='90'> <img src='G_3.jpg' height='90'> <img src='G_7.jpg' height='90'> <img src='G_1.jpg' height='90'>","1","Learning example 0",""
"","","","","","html-button-response","37","211488","0.0-29.0","26","1","2025-01-23 06:30:07","6073afb29c8d06c5d8f22ae9f1371ff8","93.113.181.115","Mozilla/5.0 (Windows NT 10.0; Win64; x64) AppleWebKit/537.36 (KHTML, like Gecko) Chrome/131.0.0.0 Safari/537.36","WebKit","Chrome","131.0.0.0","Windows","10.0","https://app.prolific.com/","en-US,en;q=0.9","679146dcbca56d462eccdfef","679147d2997803490f072fae","6791e1e1915adb110c37e663","","null","<img  src='G_5.jpg' height='90'> <img  src='G_9.jpg' height='90'> <img src='G_3.jpg' height='90'> <img src='G_7.jpg' height='90'> <img src='G_1.jpg' height='90'>","null","Learning example 0",""
"","","","","","html-button-response","38","211901","0.0-30.0","26","1","2025-01-23 06:30:07","6073afb29c8d06c5d8f22ae9f1371ff8","93.113.181.115","Mozilla/5.0 (Windows NT 10.0; Win64; x64) AppleWebKit/537.36 (KHTML, like Gecko) Chrome/131.0.0.0 Safari/537.36","WebKit","Chrome","131.0.0.0","Windows","10.0","https://app.prolific.com/","en-US,en;q=0.9","679146dcbca56d462eccdfef","679147d2997803490f072fae","6791e1e1915adb110c37e663","","null","<img  src='G_5.jpg' height='90'> <img id='selected'  src='G_9.jpg' height='90'> <img src='G_3.jpg' height='90'> <img src='G_7.jpg' height='90'> <img src='G_1.jpg' height='90'>","null","Learning example 0",""
"","","","","","html-button-response","39","212215","0.0-31.0","26","1","2025-01-23 06:30:07","6073afb29c8d06c5d8f22ae9f1371ff8","93.113.181.115","Mozilla/5.0 (Windows NT 10.0; Win64; x64) AppleWebKit/537.36 (KHTML, like Gecko) Chrome/131.0.0.0 Safari/537.36","WebKit","Chrome","131.0.0.0","Windows","10.0","https://app.prolific.com/","en-US,en;q=0.9","679146dcbca56d462eccdfef","679147d2997803490f072fae","6791e1e1915adb110c37e663","","null","<img  src='G_5.jpg' height='90'> <img id='selected'  src='G_9.jpg' height='90'> <img id='selected' src='G_3.jpg' height='90'> <img src='G_7.jpg' height='90'> <img src='G_1.jpg' height='90'>","null","Learning example 0",""
"","","","","","html-button-response","40","212527","0.0-32.0","26","1","2025-01-23 06:30:07","6073afb29c8d06c5d8f22ae9f1371ff8","93.113.181.115","Mozilla/5.0 (Windows NT 10.0; Win64; x64) AppleWebKit/537.36 (KHTML, like Gecko) Chrome/131.0.0.0 Safari/537.36","WebKit","Chrome","131.0.0.0","Windows","10.0","https://app.prolific.com/","en-US,en;q=0.9","679146dcbca56d462eccdfef","679147d2997803490f072fae","6791e1e1915adb110c37e663","","null","<img  src='G_5.jpg' height='90'> <img id='selected'  src='G_9.jpg' height='90'> <img id='selected' src='G_3.jpg' height='90'> <img src='G_7.jpg' height='90'> <img src='G_1.jpg' height='90'>","null","Learning example 0",""
"","","","","","html-button-response","41","225790","0.0-33.0-0.0-0.0","26","1","2025-01-23 06:30:07","6073afb29c8d06c5d8f22ae9f1371ff8","93.113.181.115","Mozilla/5.0 (Windows NT 10.0; Win64; x64) AppleWebKit/537.36 (KHTML, like Gecko) Chrome/131.0.0.0 Safari/537.36","WebKit","Chrome","131.0.0.0","Windows","10.0","https://app.prolific.com/","en-US,en;q=0.9","679146dcbca56d462eccdfef","679147d2997803490f072fae","6791e1e1915adb110c37e663","","13260","<img  src='G_5.jpg' height='90'> <img id='selected'  src='G_9.jpg' height='90'> <img id='selected' src='G_3.jpg' height='90'> <img src='G_7.jpg' height='90'> <img src='G_1.jpg' height='90'>","1","Learning example 0",""
"","","","","","html-button-response","42","227204","0.0-33.1-0.1-0.1","26","1","2025-01-23 06:30:07","6073afb29c8d06c5d8f22ae9f1371ff8","93.113.181.115","Mozilla/5.0 (Windows NT 10.0; Win64; x64) AppleWebKit/537.36 (KHTML, like Gecko) Chrome/131.0.0.0 Safari/537.36","WebKit","Chrome","131.0.0.0","Windows","10.0","https://app.prolific.com/","en-US,en;q=0.9","679146dcbca56d462eccdfef","679147d2997803490f072fae","6791e1e1915adb110c37e663","","1411","<img  src='G_5.jpg' height='90'> <img id='selected'  src='G_9.jpg' height='90'> <img id='selected' src='G_3.jpg' height='90'> <img src='G_7.jpg' height='90'> <img src='G_1.jpg' height='90'>","2","Learning example 0",""
"","","","","","html-button-response","43","227422","0.0-34.0","26","1","2025-01-23 06:30:07","6073afb29c8d06c5d8f22ae9f1371ff8","93.113.181.115","Mozilla/5.0 (Windows NT 10.0; Win64; x64) AppleWebKit/537.36 (KHTML, like Gecko) Chrome/131.0.0.0 Safari/537.36","WebKit","Chrome","131.0.0.0","Windows","10.0","https://app.prolific.com/","en-US,en;q=0.9","679146dcbca56d462eccdfef","679147d2997803490f072fae","6791e1e1915adb110c37e663","","null","<img  src='G_5.jpg' height='90'> <img   src='G_9.jpg' height='90'> <img  src='G_3.jpg' height='90'> <img src='G_7.jpg' height='90'> <img src='G_1.jpg' height='90'>","null","Learning example 0",""
"","","","","","html-button-response","44","227836","0.0-35.0","26","1","2025-01-23 06:30:07","6073afb29c8d06c5d8f22ae9f1371ff8","93.113.181.115","Mozilla/5.0 (Windows NT 10.0; Win64; x64) AppleWebKit/537.36 (KHTML, like Gecko) Chrome/131.0.0.0 Safari/537.36","WebKit","Chrome","131.0.0.0","Windows","10.0","https://app.prolific.com/","en-US,en;q=0.9","679146dcbca56d462eccdfef","679147d2997803490f072fae","6791e1e1915adb110c37e663","","null","<img  src='G_5.jpg' height='90'> <img   src='G_9.jpg' height='90'> <img id='selected'  src='G_3.jpg' height='90'> <img src='G_7.jpg' height='90'> <img src='G_1.jpg' height='90'>","null","Learning example 0",""
"","","","","","html-button-response","45","228148","0.0-36.0","26","1","2025-01-23 06:30:07","6073afb29c8d06c5d8f22ae9f1371ff8","93.113.181.115","Mozilla/5.0 (Windows NT 10.0; Win64; x64) AppleWebKit/537.36 (KHTML, like Gecko) Chrome/131.0.0.0 Safari/537.36","WebKit","Chrome","131.0.0.0","Windows","10.0","https://app.prolific.com/","en-US,en;q=0.9","679146dcbca56d462eccdfef","679147d2997803490f072fae","6791e1e1915adb110c37e663","","null","<img  src='G_5.jpg' height='90'> <img   src='G_9.jpg' height='90'> <img id='selected'  src='G_3.jpg' height='90'> <img id='selected' src='G_7.jpg' height='90'> <img src='G_1.jpg' height='90'>","null","Learning example 0",""
"","","","","","html-button-response","46","228457","0.0-37.0","26","1","2025-01-23 06:30:07","6073afb29c8d06c5d8f22ae9f1371ff8","93.113.181.115","Mozilla/5.0 (Windows NT 10.0; Win64; x64) AppleWebKit/537.36 (KHTML, like Gecko) Chrome/131.0.0.0 Safari/537.36","WebKit","Chrome","131.0.0.0","Windows","10.0","https://app.prolific.com/","en-US,en;q=0.9","679146dcbca56d462eccdfef","679147d2997803490f072fae","6791e1e1915adb110c37e663","","null","<img  src='G_5.jpg' height='90'> <img   src='G_9.jpg' height='90'> <img id='selected'  src='G_3.jpg' height='90'> <img id='selected' src='G_7.jpg' height='90'> <img src='G_1.jpg' height='90'>","null","Learning example 0",""
"","","","","","html-button-response","47","231789","0.0-38.0-0.0-0.0","26","1","2025-01-23 06:30:07","6073afb29c8d06c5d8f22ae9f1371ff8","93.113.181.115","Mozilla/5.0 (Windows NT 10.0; Win64; x64) AppleWebKit/537.36 (KHTML, like Gecko) Chrome/131.0.0.0 Safari/537.36","WebKit","Chrome","131.0.0.0","Windows","10.0","https://app.prolific.com/","en-US,en;q=0.9","679146dcbca56d462eccdfef","679147d2997803490f072fae","6791e1e1915adb110c37e663","","3325","<img  src='G_5.jpg' height='90'> <img   src='G_9.jpg' height='90'> <img id='selected'  src='G_3.jpg' height='90'> <img id='selected' src='G_7.jpg' height='90'> <img src='G_1.jpg' height='90'>","2","Learning example 0",""
"","","","","","html-button-response","48","232875","0.0-38.1-0.1-0.1","26","1","2025-01-23 06:30:07","6073afb29c8d06c5d8f22ae9f1371ff8","93.113.181.115","Mozilla/5.0 (Windows NT 10.0; Win64; x64) AppleWebKit/537.36 (KHTML, like Gecko) Chrome/131.0.0.0 Safari/537.36","WebKit","Chrome","131.0.0.0","Windows","10.0","https://app.prolific.com/","en-US,en;q=0.9","679146dcbca56d462eccdfef","679147d2997803490f072fae","6791e1e1915adb110c37e663","","1082","<img  src='G_5.jpg' height='90'> <img   src='G_9.jpg' height='90'> <img id='selected'  src='G_3.jpg' height='90'> <img id='selected' src='G_7.jpg' height='90'> <img src='G_1.jpg' height='90'>","3","Learning example 0",""
"","","","","","html-button-response","49","233092","0.0-39.0","26","1","2025-01-23 06:30:07","6073afb29c8d06c5d8f22ae9f1371ff8","93.113.181.115","Mozilla/5.0 (Windows NT 10.0; Win64; x64) AppleWebKit/537.36 (KHTML, like Gecko) Chrome/131.0.0.0 Safari/537.36","WebKit","Chrome","131.0.0.0","Windows","10.0","https://app.prolific.com/","en-US,en;q=0.9","679146dcbca56d462eccdfef","679147d2997803490f072fae","6791e1e1915adb110c37e663","","null","<img  src='G_5.jpg' height='90'> <img   src='G_9.jpg' height='90'> <img   src='G_3.jpg' height='90'> <img  src='G_7.jpg' height='90'> <img src='G_1.jpg' height='90'>","null","Learning example 0",""
"","","","","","html-button-response","50","233495","0.0-40.0","26","1","2025-01-23 06:30:07","6073afb29c8d06c5d8f22ae9f1371ff8","93.113.181.115","Mozilla/5.0 (Windows NT 10.0; Win64; x64) AppleWebKit/537.36 (KHTML, like Gecko) Chrome/131.0.0.0 Safari/537.36","WebKit","Chrome","131.0.0.0","Windows","10.0","https://app.prolific.com/","en-US,en;q=0.9","679146dcbca56d462eccdfef","679147d2997803490f072fae","6791e1e1915adb110c37e663","","null","<img  src='G_5.jpg' height='90'> <img   src='G_9.jpg' height='90'> <img   src='G_3.jpg' height='90'> <img id='selected'  src='G_7.jpg' height='90'> <img src='G_1.jpg' height='90'>","null","Learning example 0",""
"","","","","","html-button-response","51","233809","0.0-41.0","26","1","2025-01-23 06:30:07","6073afb29c8d06c5d8f22ae9f1371ff8","93.113.181.115","Mozilla/5.0 (Windows NT 10.0; Win64; x64) AppleWebKit/537.36 (KHTML, like Gecko) Chrome/131.0.0.0 Safari/537.36","WebKit","Chrome","131.0.0.0","Windows","10.0","https://app.prolific.com/","en-US,en;q=0.9","679146dcbca56d462eccdfef","679147d2997803490f072fae","6791e1e1915adb110c37e663","","null","<img  src='G_5.jpg' height='90'> <img   src='G_9.jpg' height='90'> <img   src='G_3.jpg' height='90'> <img id='selected'  src='G_7.jpg' height='90'> <img id='selected' src='G_1.jpg' height='90'>","null","Learning example 0",""
"","","","","","html-button-response","52","234120","0.0-42.0","26","1","2025-01-23 06:30:07","6073afb29c8d06c5d8f22ae9f1371ff8","93.113.181.115","Mozilla/5.0 (Windows NT 10.0; Win64; x64) AppleWebKit/537.36 (KHTML, like Gecko) Chrome/131.0.0.0 Safari/537.36","WebKit","Chrome","131.0.0.0","Windows","10.0","https://app.prolific.com/","en-US,en;q=0.9","679146dcbca56d462eccdfef","679147d2997803490f072fae","6791e1e1915adb110c37e663","","null","<img  src='G_5.jpg' height='90'> <img   src='G_9.jpg' height='90'> <img   src='G_3.jpg' height='90'> <img id='selected'  src='G_7.jpg' height='90'> <img id='selected' src='G_1.jpg' height='90'>","null","Learning example 0",""
"","","","","","html-button-response","53","234638","0.0-43.0-0.0-0.0","26","1","2025-01-23 06:30:07","6073afb29c8d06c5d8f22ae9f1371ff8","93.113.181.115","Mozilla/5.0 (Windows NT 10.0; Win64; x64) AppleWebKit/537.36 (KHTML, like Gecko) Chrome/131.0.0.0 Safari/537.36","WebKit","Chrome","131.0.0.0","Windows","10.0","https://app.prolific.com/","en-US,en;q=0.9","679146dcbca56d462eccdfef","679147d2997803490f072fae","6791e1e1915adb110c37e663","","515","<img  src='G_5.jpg' height='90'> <img   src='G_9.jpg' height='90'> <img   src='G_3.jpg' height='90'> <img id='selected'  src='G_7.jpg' height='90'> <img id='selected' src='G_1.jpg' height='90'>","3","Learning example 0",""
"","","","","","html-button-response","54","235590","0.0-43.1-0.1-0.1","26","1","2025-01-23 06:30:07","6073afb29c8d06c5d8f22ae9f1371ff8","93.113.181.115","Mozilla/5.0 (Windows NT 10.0; Win64; x64) AppleWebKit/537.36 (KHTML, like Gecko) Chrome/131.0.0.0 Safari/537.36","WebKit","Chrome","131.0.0.0","Windows","10.0","https://app.prolific.com/","en-US,en;q=0.9","679146dcbca56d462eccdfef","679147d2997803490f072fae","6791e1e1915adb110c37e663","","949","<img  src='G_5.jpg' height='90'> <img   src='G_9.jpg' height='90'> <img   src='G_3.jpg' height='90'> <img id='selected'  src='G_7.jpg' height='90'> <img id='selected' src='G_1.jpg' height='90'>","4","Learning example 0",""
"","","","","","html-button-response","55","235812","0.0-44.0","26","1","2025-01-23 06:30:07","6073afb29c8d06c5d8f22ae9f1371ff8","93.113.181.115","Mozilla/5.0 (Windows NT 10.0; Win64; x64) AppleWebKit/537.36 (KHTML, like Gecko) Chrome/131.0.0.0 Safari/537.36","WebKit","Chrome","131.0.0.0","Windows","10.0","https://app.prolific.com/","en-US,en;q=0.9","679146dcbca56d462eccdfef","679147d2997803490f072fae","6791e1e1915adb110c37e663","","null","<img  src='G_5.jpg' height='90'> <img   src='G_9.jpg' height='90'> <img   src='G_3.jpg' height='90'> <img   src='G_7.jpg' height='90'> <img  src='G_1.jpg' height='90'>","null","Learning example 0",""
"","","","","","html-keyboard-response","56","238412","0.0-45.0","26","1","2025-01-23 06:30:07","6073afb29c8d06c5d8f22ae9f1371ff8","93.113.181.115","Mozilla/5.0 (Windows NT 10.0; Win64; x64) AppleWebKit/537.36 (KHTML, like Gecko) Chrome/131.0.0.0 Safari/537.36","WebKit","Chrome","131.0.0.0","Windows","10.0","https://app.prolific.com/","en-US,en;q=0.9","679146dcbca56d462eccdfef","679147d2997803490f072fae","6791e1e1915adb110c37e663","","2596","[""Final order was 1,2,3,4,5. The initial order was 2,1,3,4,5.<br>It took 1 swaps to sort it correctly with Omgne Sort. <br><br>Press Enter to continue.""]","enter","",""
"","","","","","instructions","57","413094","0.0-46.0","26","1","2025-01-23 06:30:07","6073afb29c8d06c5d8f22ae9f1371ff8","93.113.181.115","Mozilla/5.0 (Windows NT 10.0; Win64; x64) AppleWebKit/537.36 (KHTML, like Gecko) Chrome/131.0.0.0 Safari/537.36","WebKit","Chrome","131.0.0.0","Windows","10.0","https://app.prolific.com/","en-US,en;q=0.9","679146dcbca56d462eccdfef","679147d2997803490f072fae","6791e1e1915adb110c37e663","[{""page_index"":0,""viewing_time"":36863},{""page_index"":1,""viewing_time"":29544},{""page_index"":2,""viewing_time"":4194},{""page_index"":3,""viewing_time"":7212},{""page_index"":2,""viewing_time"":29292},{""page_index"":3,""viewing_time"":3630},{""page_index"":2,""viewing_time"":53263},{""page_index"":3,""viewing_time"":10681}]","174680","","","",""
"","","","","","html-keyboard-response","58","418894","0.0-47.0","26","1","2025-01-23 06:30:07","6073afb29c8d06c5d8f22ae9f1371ff8","93.113.181.115","Mozilla/5.0 (Windows NT 10.0; Win64; x64) AppleWebKit/537.36 (KHTML, like Gecko) Chrome/131.0.0.0 Safari/537.36","WebKit","Chrome","131.0.0.0","Windows","10.0","https://app.prolific.com/","en-US,en;q=0.9","679146dcbca56d462eccdfef","679147d2997803490f072fae","6791e1e1915adb110c37e663","","5797","[""Example 2<br><br>You will watch Omnge Sort in action. Try to identify any patterns in the comparisons made by this method. <br><br>Press Enter to continue.""]","enter","",""
"","","","","","html-keyboard-response","59","419402","0.0-48.0","26","1","2025-01-23 06:30:07","6073afb29c8d06c5d8f22ae9f1371ff8","93.113.181.115","Mozilla/5.0 (Windows NT 10.0; Win64; x64) AppleWebKit/537.36 (KHTML, like Gecko) Chrome/131.0.0.0 Safari/537.36","WebKit","Chrome","131.0.0.0","Windows","10.0","https://app.prolific.com/","en-US,en;q=0.9","679146dcbca56d462eccdfef","679147d2997803490f072fae","6791e1e1915adb110c37e663","","null","<img id='selected' src='G_9.jpg' height='90'> <img src='G_5.jpg' height='90'> <img src='G_3.jpg' height='90'> <img src='G_7.jpg' height='90'> <img src='G_1.jpg' height='90'>","null","Animation1",""
"","","","","","html-keyboard-response","60","419907","0.0-49.0","26","1","2025-01-23 06:30:07","6073afb29c8d06c5d8f22ae9f1371ff8","93.113.181.115","Mozilla/5.0 (Windows NT 10.0; Win64; x64) AppleWebKit/537.36 (KHTML, like Gecko) Chrome/131.0.0.0 Safari/537.36","WebKit","Chrome","131.0.0.0","Windows","10.0","https://app.prolific.com/","en-US,en;q=0.9","679146dcbca56d462eccdfef","679147d2997803490f072fae","6791e1e1915adb110c37e663","","null","<img id='selected' src='G_9.jpg' height='90'> <img id='selected' src='G_5.jpg' height='90'> <img src='G_3.jpg' height='90'> <img src='G_7.jpg' height='90'> <img src='G_1.jpg' height='90'>","null","Animation1",""
"","","","","","html-keyboard-response","61","420423","0.0-50.0","26","1","2025-01-23 06:30:07","6073afb29c8d06c5d8f22ae9f1371ff8","93.113.181.115","Mozilla/5.0 (Windows NT 10.0; Win64; x64) AppleWebKit/537.36 (KHTML, like Gecko) Chrome/131.0.0.0 Safari/537.36","WebKit","Chrome","131.0.0.0","Windows","10.0","https://app.prolific.com/","en-US,en;q=0.9","679146dcbca56d462eccdfef","679147d2997803490f072fae","6791e1e1915adb110c37e663","","null","<img id='swapped' src='G_5.jpg' height='90'> <img id='swapped' src='G_9.jpg' height='90'> <img src='G_3.jpg' height='90'> <img src='G_7.jpg' height='90'> <img src='G_1.jpg' height='90'>","null","Animation1",""
"","","","","","html-keyboard-response","62","420734","0.0-51.0","26","1","2025-01-23 06:30:07","6073afb29c8d06c5d8f22ae9f1371ff8","93.113.181.115","Mozilla/5.0 (Windows NT 10.0; Win64; x64) AppleWebKit/537.36 (KHTML, like Gecko) Chrome/131.0.0.0 Safari/537.36","WebKit","Chrome","131.0.0.0","Windows","10.0","https://app.prolific.com/","en-US,en;q=0.9","679146dcbca56d462eccdfef","679147d2997803490f072fae","6791e1e1915adb110c37e663","","null","<img  src='G_5.jpg' height='90'> <img  src='G_9.jpg' height='90'> <img src='G_3.jpg' height='90'> <img src='G_7.jpg' height='90'> <img src='G_1.jpg' height='90'>","null","Animation1",""
"","","","","","html-keyboard-response","63","421250","0.0-52.0","26","1","2025-01-23 06:30:07","6073afb29c8d06c5d8f22ae9f1371ff8","93.113.181.115","Mozilla/5.0 (Windows NT 10.0; Win64; x64) AppleWebKit/537.36 (KHTML, like Gecko) Chrome/131.0.0.0 Safari/537.36","WebKit","Chrome","131.0.0.0","Windows","10.0","https://app.prolific.com/","en-US,en;q=0.9","679146dcbca56d462eccdfef","679147d2997803490f072fae","6791e1e1915adb110c37e663","","null","<img  src='G_5.jpg' height='90'> <img id='selected'  src='G_9.jpg' height='90'> <img src='G_3.jpg' height='90'> <img src='G_7.jpg' height='90'> <img src='G_1.jpg' height='90'>","null","Animation1",""
"","","","","","html-keyboard-response","64","421768","0.0-53.0","26","1","2025-01-23 06:30:07","6073afb29c8d06c5d8f22ae9f1371ff8","93.113.181.115","Mozilla/5.0 (Windows NT 10.0; Win64; x64) AppleWebKit/537.36 (KHTML, like Gecko) Chrome/131.0.0.0 Safari/537.36","WebKit","Chrome","131.0.0.0","Windows","10.0","https://app.prolific.com/","en-US,en;q=0.9","679146dcbca56d462eccdfef","679147d2997803490f072fae","6791e1e1915adb110c37e663","","null","<img  src='G_5.jpg' height='90'> <img id='selected'  src='G_9.jpg' height='90'> <img id='selected' src='G_3.jpg' height='90'> <img src='G_7.jpg' height='90'> <img src='G_1.jpg' height='90'>","null","Animation1",""
"","","","","","html-keyboard-response","65","422278","0.0-54.0","26","1","2025-01-23 06:30:07","6073afb29c8d06c5d8f22ae9f1371ff8","93.113.181.115","Mozilla/5.0 (Windows NT 10.0; Win64; x64) AppleWebKit/537.36 (KHTML, like Gecko) Chrome/131.0.0.0 Safari/537.36","WebKit","Chrome","131.0.0.0","Windows","10.0","https://app.prolific.com/","en-US,en;q=0.9","679146dcbca56d462eccdfef","679147d2997803490f072fae","6791e1e1915adb110c37e663","","null","<img  src='G_5.jpg' height='90'> <img id='swapped' src='G_3.jpg' height='90'> <img id='swapped'  src='G_9.jpg' height='90'> <img src='G_7.jpg' height='90'> <img src='G_1.jpg' height='90'>","null","Animation1",""
"","","","","","html-keyboard-response","66","422595","0.0-55.0","26","1","2025-01-23 06:30:07","6073afb29c8d06c5d8f22ae9f1371ff8","93.113.181.115","Mozilla/5.0 (Windows NT 10.0; Win64; x64) AppleWebKit/537.36 (KHTML, like Gecko) Chrome/131.0.0.0 Safari/537.36","WebKit","Chrome","131.0.0.0","Windows","10.0","https://app.prolific.com/","en-US,en;q=0.9","679146dcbca56d462eccdfef","679147d2997803490f072fae","6791e1e1915adb110c37e663","","null","<img  src='G_5.jpg' height='90'> <img  src='G_3.jpg' height='90'> <img   src='G_9.jpg' height='90'> <img src='G_7.jpg' height='90'> <img src='G_1.jpg' height='90'>","null","Animation1",""
"","","","","","html-keyboard-response","67","423101","0.0-56.0","26","1","2025-01-23 06:30:07","6073afb29c8d06c5d8f22ae9f1371ff8","93.113.181.115","Mozilla/5.0 (Windows NT 10.0; Win64; x64) AppleWebKit/537.36 (KHTML, like Gecko) Chrome/131.0.0.0 Safari/537.36","WebKit","Chrome","131.0.0.0","Windows","10.0","https://app.prolific.com/","en-US,en;q=0.9","679146dcbca56d462eccdfef","679147d2997803490f072fae","6791e1e1915adb110c37e663","","null","<img id='selected'  src='G_5.jpg' height='90'> <img  src='G_3.jpg' height='90'> <img   src='G_9.jpg' height='90'> <img src='G_7.jpg' height='90'> <img src='G_1.jpg' height='90'>","null","Animation1",""
"","","","","","html-keyboard-response","68","423614","0.0-57.0","26","1","2025-01-23 06:30:07","6073afb29c8d06c5d8f22ae9f1371ff8","93.113.181.115","Mozilla/5.0 (Windows NT 10.0; Win64; x64) AppleWebKit/537.36 (KHTML, like Gecko) Chrome/131.0.0.0 Safari/537.36","WebKit","Chrome","131.0.0.0","Windows","10.0","https://app.prolific.com/","en-US,en;q=0.9","679146dcbca56d462eccdfef","679147d2997803490f072fae","6791e1e1915adb110c37e663","","null","<img id='selected'  src='G_5.jpg' height='90'> <img id='selected'  src='G_3.jpg' height='90'> <img   src='G_9.jpg' height='90'> <img src='G_7.jpg' height='90'> <img src='G_1.jpg' height='90'>","null","Animation1",""
"","","","","","html-keyboard-response","69","424131","0.0-58.0","26","1","2025-01-23 06:30:07","6073afb29c8d06c5d8f22ae9f1371ff8","93.113.181.115","Mozilla/5.0 (Windows NT 10.0; Win64; x64) AppleWebKit/537.36 (KHTML, like Gecko) Chrome/131.0.0.0 Safari/537.36","WebKit","Chrome","131.0.0.0","Windows","10.0","https://app.prolific.com/","en-US,en;q=0.9","679146dcbca56d462eccdfef","679147d2997803490f072fae","6791e1e1915adb110c37e663","","null","<img id='swapped'  src='G_3.jpg' height='90'> <img id='swapped'  src='G_5.jpg' height='90'> <img   src='G_9.jpg' height='90'> <img src='G_7.jpg' height='90'> <img src='G_1.jpg' height='90'>","null","Animation1",""
"","","","","","html-keyboard-response","70","424452","0.0-59.0","26","1","2025-01-23 06:30:07","6073afb29c8d06c5d8f22ae9f1371ff8","93.113.181.115","Mozilla/5.0 (Windows NT 10.0; Win64; x64) AppleWebKit/537.36 (KHTML, like Gecko) Chrome/131.0.0.0 Safari/537.36","WebKit","Chrome","131.0.0.0","Windows","10.0","https://app.prolific.com/","en-US,en;q=0.9","679146dcbca56d462eccdfef","679147d2997803490f072fae","6791e1e1915adb110c37e663","","null","<img   src='G_3.jpg' height='90'> <img   src='G_5.jpg' height='90'> <img   src='G_9.jpg' height='90'> <img src='G_7.jpg' height='90'> <img src='G_1.jpg' height='90'>","null","Animation1",""
"","","","","","html-keyboard-response","71","424971","0.0-60.0","26","1","2025-01-23 06:30:07","6073afb29c8d06c5d8f22ae9f1371ff8","93.113.181.115","Mozilla/5.0 (Windows NT 10.0; Win64; x64) AppleWebKit/537.36 (KHTML, like Gecko) Chrome/131.0.0.0 Safari/537.36","WebKit","Chrome","131.0.0.0","Windows","10.0","https://app.prolific.com/","en-US,en;q=0.9","679146dcbca56d462eccdfef","679147d2997803490f072fae","6791e1e1915adb110c37e663","","null","<img   src='G_3.jpg' height='90'> <img   src='G_5.jpg' height='90'> <img id='selected'   src='G_9.jpg' height='90'> <img src='G_7.jpg' height='90'> <img src='G_1.jpg' height='90'>","null","Animation1",""
"","","","","","html-keyboard-response","72","425477","0.0-61.0","26","1","2025-01-23 06:30:07","6073afb29c8d06c5d8f22ae9f1371ff8","93.113.181.115","Mozilla/5.0 (Windows NT 10.0; Win64; x64) AppleWebKit/537.36 (KHTML, like Gecko) Chrome/131.0.0.0 Safari/537.36","WebKit","Chrome","131.0.0.0","Windows","10.0","https://app.prolific.com/","en-US,en;q=0.9","679146dcbca56d462eccdfef","679147d2997803490f072fae","6791e1e1915adb110c37e663","","null","<img   src='G_3.jpg' height='90'> <img   src='G_5.jpg' height='90'> <img id='selected'   src='G_9.jpg' height='90'> <img id='selected' src='G_7.jpg' height='90'> <img src='G_1.jpg' height='90'>","null","Animation1",""
"","","","","","html-keyboard-response","73","425985","0.0-62.0","26","1","2025-01-23 06:30:07","6073afb29c8d06c5d8f22ae9f1371ff8","93.113.181.115","Mozilla/5.0 (Windows NT 10.0; Win64; x64) AppleWebKit/537.36 (KHTML, like Gecko) Chrome/131.0.0.0 Safari/537.36","WebKit","Chrome","131.0.0.0","Windows","10.0","https://app.prolific.com/","en-US,en;q=0.9","679146dcbca56d462eccdfef","679147d2997803490f072fae","6791e1e1915adb110c37e663","","null","<img   src='G_3.jpg' height='90'> <img   src='G_5.jpg' height='90'> <img id='swapped' src='G_7.jpg' height='90'> <img id='swapped'   src='G_9.jpg' height='90'> <img src='G_1.jpg' height='90'>","null","Animation1",""
"","","","","","html-keyboard-response","74","426296","0.0-63.0","26","1","2025-01-23 06:30:07","6073afb29c8d06c5d8f22ae9f1371ff8","93.113.181.115","Mozilla/5.0 (Windows NT 10.0; Win64; x64) AppleWebKit/537.36 (KHTML, like Gecko) Chrome/131.0.0.0 Safari/537.36","WebKit","Chrome","131.0.0.0","Windows","10.0","https://app.prolific.com/","en-US,en;q=0.9","679146dcbca56d462eccdfef","679147d2997803490f072fae","6791e1e1915adb110c37e663","","null","<img   src='G_3.jpg' height='90'> <img   src='G_5.jpg' height='90'> <img  src='G_7.jpg' height='90'> <img    src='G_9.jpg' height='90'> <img src='G_1.jpg' height='90'>","null","Animation1",""
"","","","","","html-keyboard-response","75","426818","0.0-64.0","26","1","2025-01-23 06:30:07","6073afb29c8d06c5d8f22ae9f1371ff8","93.113.181.115","Mozilla/5.0 (Windows NT 10.0; Win64; x64) AppleWebKit/537.36 (KHTML, like Gecko) Chrome/131.0.0.0 Safari/537.36","WebKit","Chrome","131.0.0.0","Windows","10.0","https://app.prolific.com/","en-US,en;q=0.9","679146dcbca56d462eccdfef","679147d2997803490f072fae","6791e1e1915adb110c37e663","","null","<img   src='G_3.jpg' height='90'> <img id='selected'   src='G_5.jpg' height='90'> <img  src='G_7.jpg' height='90'> <img    src='G_9.jpg' height='90'> <img src='G_1.jpg' height='90'>","null","Animation1",""
"","","","","","html-keyboard-response","76","427326","0.0-65.0","26","1","2025-01-23 06:30:07","6073afb29c8d06c5d8f22ae9f1371ff8","93.113.181.115","Mozilla/5.0 (Windows NT 10.0; Win64; x64) AppleWebKit/537.36 (KHTML, like Gecko) Chrome/131.0.0.0 Safari/537.36","WebKit","Chrome","131.0.0.0","Windows","10.0","https://app.prolific.com/","en-US,en;q=0.9","679146dcbca56d462eccdfef","679147d2997803490f072fae","6791e1e1915adb110c37e663","","null","<img   src='G_3.jpg' height='90'> <img id='selected'   src='G_5.jpg' height='90'> <img id='selected'  src='G_7.jpg' height='90'> <img    src='G_9.jpg' height='90'> <img src='G_1.jpg' height='90'>","null","Animation1",""
"","","","","","html-keyboard-response","77","427850","0.0-66.0","26","1","2025-01-23 06:30:07","6073afb29c8d06c5d8f22ae9f1371ff8","93.113.181.115","Mozilla/5.0 (Windows NT 10.0; Win64; x64) AppleWebKit/537.36 (KHTML, like Gecko) Chrome/131.0.0.0 Safari/537.36","WebKit","Chrome","131.0.0.0","Windows","10.0","https://app.prolific.com/","en-US,en;q=0.9","679146dcbca56d462eccdfef","679147d2997803490f072fae","6791e1e1915adb110c37e663","","null","<img   src='G_3.jpg' height='90'> <img id='swapped'  src='G_7.jpg' height='90'> <img id='swapped'   src='G_5.jpg' height='90'> <img    src='G_9.jpg' height='90'> <img src='G_1.jpg' height='90'>","null","Animation1",""
"","","","","","html-keyboard-response","78","428169","0.0-67.0","26","1","2025-01-23 06:30:07","6073afb29c8d06c5d8f22ae9f1371ff8","93.113.181.115","Mozilla/5.0 (Windows NT 10.0; Win64; x64) AppleWebKit/537.36 (KHTML, like Gecko) Chrome/131.0.0.0 Safari/537.36","WebKit","Chrome","131.0.0.0","Windows","10.0","https://app.prolific.com/","en-US,en;q=0.9","679146dcbca56d462eccdfef","679147d2997803490f072fae","6791e1e1915adb110c37e663","","null","<img   src='G_3.jpg' height='90'> <img   src='G_7.jpg' height='90'> <img    src='G_5.jpg' height='90'> <img    src='G_9.jpg' height='90'> <img src='G_1.jpg' height='90'>","null","Animation1",""
"","","","","","html-keyboard-response","79","428678","0.0-68.0","26","1","2025-01-23 06:30:07","6073afb29c8d06c5d8f22ae9f1371ff8","93.113.181.115","Mozilla/5.0 (Windows NT 10.0; Win64; x64) AppleWebKit/537.36 (KHTML, like Gecko) Chrome/131.0.0.0 Safari/537.36","WebKit","Chrome","131.0.0.0","Windows","10.0","https://app.prolific.com/","en-US,en;q=0.9","679146dcbca56d462eccdfef","679147d2997803490f072fae","6791e1e1915adb110c37e663","","null","<img id='selected'   src='G_3.jpg' height='90'> <img   src='G_7.jpg' height='90'> <img    src='G_5.jpg' height='90'> <img    src='G_9.jpg' height='90'> <img src='G_1.jpg' height='90'>","null","Animation1",""
"","","","","","html-keyboard-response","80","429187","0.0-69.0","26","1","2025-01-23 06:30:07","6073afb29c8d06c5d8f22ae9f1371ff8","93.113.181.115","Mozilla/5.0 (Windows NT 10.0; Win64; x64) AppleWebKit/537.36 (KHTML, like Gecko) Chrome/131.0.0.0 Safari/537.36","WebKit","Chrome","131.0.0.0","Windows","10.0","https://app.prolific.com/","en-US,en;q=0.9","679146dcbca56d462eccdfef","679147d2997803490f072fae","6791e1e1915adb110c37e663","","null","<img id='selected'   src='G_3.jpg' height='90'> <img id='selected'   src='G_7.jpg' height='90'> <img    src='G_5.jpg' height='90'> <img    src='G_9.jpg' height='90'> <img src='G_1.jpg' height='90'>","null","Animation1",""
"","","","","","html-keyboard-response","81","429696","0.0-70.0","26","1","2025-01-23 06:30:07","6073afb29c8d06c5d8f22ae9f1371ff8","93.113.181.115","Mozilla/5.0 (Windows NT 10.0; Win64; x64) AppleWebKit/537.36 (KHTML, like Gecko) Chrome/131.0.0.0 Safari/537.36","WebKit","Chrome","131.0.0.0","Windows","10.0","https://app.prolific.com/","en-US,en;q=0.9","679146dcbca56d462eccdfef","679147d2997803490f072fae","6791e1e1915adb110c37e663","","null","<img id='swapped'   src='G_7.jpg' height='90'> <img id='swapped'   src='G_3.jpg' height='90'> <img    src='G_5.jpg' height='90'> <img    src='G_9.jpg' height='90'> <img src='G_1.jpg' height='90'>","null","Animation1",""
"","","","","","html-keyboard-response","82","430007","0.0-71.0","26","1","2025-01-23 06:30:07","6073afb29c8d06c5d8f22ae9f1371ff8","93.113.181.115","Mozilla/5.0 (Windows NT 10.0; Win64; x64) AppleWebKit/537.36 (KHTML, like Gecko) Chrome/131.0.0.0 Safari/537.36","WebKit","Chrome","131.0.0.0","Windows","10.0","https://app.prolific.com/","en-US,en;q=0.9","679146dcbca56d462eccdfef","679147d2997803490f072fae","6791e1e1915adb110c37e663","","null","<img    src='G_7.jpg' height='90'> <img    src='G_3.jpg' height='90'> <img    src='G_5.jpg' height='90'> <img    src='G_9.jpg' height='90'> <img src='G_1.jpg' height='90'>","null","Animation1",""
"","","","","","html-keyboard-response","83","430530","0.0-72.0","26","1","2025-01-23 06:30:07","6073afb29c8d06c5d8f22ae9f1371ff8","93.113.181.115","Mozilla/5.0 (Windows NT 10.0; Win64; x64) AppleWebKit/537.36 (KHTML, like Gecko) Chrome/131.0.0.0 Safari/537.36","WebKit","Chrome","131.0.0.0","Windows","10.0","https://app.prolific.com/","en-US,en;q=0.9","679146dcbca56d462eccdfef","679147d2997803490f072fae","6791e1e1915adb110c37e663","","null","<img    src='G_7.jpg' height='90'> <img    src='G_3.jpg' height='90'> <img    src='G_5.jpg' height='90'> <img id='selected'    src='G_9.jpg' height='90'> <img src='G_1.jpg' height='90'>","null","Animation1",""
"","","","","","html-keyboard-response","84","431049","0.0-73.0","26","1","2025-01-23 06:30:07","6073afb29c8d06c5d8f22ae9f1371ff8","93.113.181.115","Mozilla/5.0 (Windows NT 10.0; Win64; x64) AppleWebKit/537.36 (KHTML, like Gecko) Chrome/131.0.0.0 Safari/537.36","WebKit","Chrome","131.0.0.0","Windows","10.0","https://app.prolific.com/","en-US,en;q=0.9","679146dcbca56d462eccdfef","679147d2997803490f072fae","6791e1e1915adb110c37e663","","null","<img    src='G_7.jpg' height='90'> <img    src='G_3.jpg' height='90'> <img    src='G_5.jpg' height='90'> <img id='selected'    src='G_9.jpg' height='90'> <img id='selected' src='G_1.jpg' height='90'>","null","Animation1",""
"","","","","","html-keyboard-response","85","431556","0.0-74.0","26","1","2025-01-23 06:30:07","6073afb29c8d06c5d8f22ae9f1371ff8","93.113.181.115","Mozilla/5.0 (Windows NT 10.0; Win64; x64) AppleWebKit/537.36 (KHTML, like Gecko) Chrome/131.0.0.0 Safari/537.36","WebKit","Chrome","131.0.0.0","Windows","10.0","https://app.prolific.com/","en-US,en;q=0.9","679146dcbca56d462eccdfef","679147d2997803490f072fae","6791e1e1915adb110c37e663","","null","<img    src='G_7.jpg' height='90'> <img    src='G_3.jpg' height='90'> <img    src='G_5.jpg' height='90'> <img id='swapped' src='G_1.jpg' height='90'> <img id='swapped'    src='G_9.jpg' height='90'>","null","Animation1",""
"","","","","","html-keyboard-response","86","431861","0.0-75.0","26","1","2025-01-23 06:30:07","6073afb29c8d06c5d8f22ae9f1371ff8","93.113.181.115","Mozilla/5.0 (Windows NT 10.0; Win64; x64) AppleWebKit/537.36 (KHTML, like Gecko) Chrome/131.0.0.0 Safari/537.36","WebKit","Chrome","131.0.0.0","Windows","10.0","https://app.prolific.com/","en-US,en;q=0.9","679146dcbca56d462eccdfef","679147d2997803490f072fae","6791e1e1915adb110c37e663","","null","<img    src='G_7.jpg' height='90'> <img    src='G_3.jpg' height='90'> <img    src='G_5.jpg' height='90'> <img  src='G_1.jpg' height='90'> <img     src='G_9.jpg' height='90'>","null","Animation1",""
"","","","","","html-keyboard-response","87","432377","0.0-76.0","26","1","2025-01-23 06:30:07","6073afb29c8d06c5d8f22ae9f1371ff8","93.113.181.115","Mozilla/5.0 (Windows NT 10.0; Win64; x64) AppleWebKit/537.36 (KHTML, like Gecko) Chrome/131.0.0.0 Safari/537.36","WebKit","Chrome","131.0.0.0","Windows","10.0","https://app.prolific.com/","en-US,en;q=0.9","679146dcbca56d462eccdfef","679147d2997803490f072fae","6791e1e1915adb110c37e663","","null","<img    src='G_7.jpg' height='90'> <img    src='G_3.jpg' height='90'> <img id='selected'    src='G_5.jpg' height='90'> <img  src='G_1.jpg' height='90'> <img     src='G_9.jpg' height='90'>","null","Animation1",""
"","","","","","html-keyboard-response","88","432894","0.0-77.0","26","1","2025-01-23 06:30:07","6073afb29c8d06c5d8f22ae9f1371ff8","93.113.181.115","Mozilla/5.0 (Windows NT 10.0; Win64; x64) AppleWebKit/537.36 (KHTML, like Gecko) Chrome/131.0.0.0 Safari/537.36","WebKit","Chrome","131.0.0.0","Windows","10.0","https://app.prolific.com/","en-US,en;q=0.9","679146dcbca56d462eccdfef","679147d2997803490f072fae","6791e1e1915adb110c37e663","","null","<img    src='G_7.jpg' height='90'> <img    src='G_3.jpg' height='90'> <img id='selected'    src='G_5.jpg' height='90'> <img id='selected'  src='G_1.jpg' height='90'> <img     src='G_9.jpg' height='90'>","null","Animation1",""
"","","","","","html-keyboard-response","89","433413","0.0-78.0","26","1","2025-01-23 06:30:07","6073afb29c8d06c5d8f22ae9f1371ff8","93.113.181.115","Mozilla/5.0 (Windows NT 10.0; Win64; x64) AppleWebKit/537.36 (KHTML, like Gecko) Chrome/131.0.0.0 Safari/537.36","WebKit","Chrome","131.0.0.0","Windows","10.0","https://app.prolific.com/","en-US,en;q=0.9","679146dcbca56d462eccdfef","679147d2997803490f072fae","6791e1e1915adb110c37e663","","null","<img    src='G_7.jpg' height='90'> <img    src='G_3.jpg' height='90'> <img id='swapped'  src='G_1.jpg' height='90'> <img id='swapped'    src='G_5.jpg' height='90'> <img     src='G_9.jpg' height='90'>","null","Animation1",""
"","","","","","html-keyboard-response","90","433726","0.0-79.0","26","1","2025-01-23 06:30:07","6073afb29c8d06c5d8f22ae9f1371ff8","93.113.181.115","Mozilla/5.0 (Windows NT 10.0; Win64; x64) AppleWebKit/537.36 (KHTML, like Gecko) Chrome/131.0.0.0 Safari/537.36","WebKit","Chrome","131.0.0.0","Windows","10.0","https://app.prolific.com/","en-US,en;q=0.9","679146dcbca56d462eccdfef","679147d2997803490f072fae","6791e1e1915adb110c37e663","","null","<img    src='G_7.jpg' height='90'> <img    src='G_3.jpg' height='90'> <img   src='G_1.jpg' height='90'> <img     src='G_5.jpg' height='90'> <img     src='G_9.jpg' height='90'>","null","Animation1",""
"","","","","","html-keyboard-response","91","434241","0.0-80.0","26","1","2025-01-23 06:30:07","6073afb29c8d06c5d8f22ae9f1371ff8","93.113.181.115","Mozilla/5.0 (Windows NT 10.0; Win64; x64) AppleWebKit/537.36 (KHTML, like Gecko) Chrome/131.0.0.0 Safari/537.36","WebKit","Chrome","131.0.0.0","Windows","10.0","https://app.prolific.com/","en-US,en;q=0.9","679146dcbca56d462eccdfef","679147d2997803490f072fae","6791e1e1915adb110c37e663","","null","<img    src='G_7.jpg' height='90'> <img id='selected'    src='G_3.jpg' height='90'> <img   src='G_1.jpg' height='90'> <img     src='G_5.jpg' height='90'> <img     src='G_9.jpg' height='90'>","null","Animation1",""
"","","","","","html-keyboard-response","92","434758","0.0-81.0","26","1","2025-01-23 06:30:07","6073afb29c8d06c5d8f22ae9f1371ff8","93.113.181.115","Mozilla/5.0 (Windows NT 10.0; Win64; x64) AppleWebKit/537.36 (KHTML, like Gecko) Chrome/131.0.0.0 Safari/537.36","WebKit","Chrome","131.0.0.0","Windows","10.0","https://app.prolific.com/","en-US,en;q=0.9","679146dcbca56d462eccdfef","679147d2997803490f072fae","6791e1e1915adb110c37e663","","null","<img    src='G_7.jpg' height='90'> <img id='selected'    src='G_3.jpg' height='90'> <img id='selected'   src='G_1.jpg' height='90'> <img     src='G_5.jpg' height='90'> <img     src='G_9.jpg' height='90'>","null","Animation1",""
"","","","","","html-keyboard-response","93","435273","0.0-82.0","26","1","2025-01-23 06:30:07","6073afb29c8d06c5d8f22ae9f1371ff8","93.113.181.115","Mozilla/5.0 (Windows NT 10.0; Win64; x64) AppleWebKit/537.36 (KHTML, like Gecko) Chrome/131.0.0.0 Safari/537.36","WebKit","Chrome","131.0.0.0","Windows","10.0","https://app.prolific.com/","en-US,en;q=0.9","679146dcbca56d462eccdfef","679147d2997803490f072fae","6791e1e1915adb110c37e663","","null","<img    src='G_7.jpg' height='90'> <img id='swapped'   src='G_1.jpg' height='90'> <img id='swapped'    src='G_3.jpg' height='90'> <img     src='G_5.jpg' height='90'> <img     src='G_9.jpg' height='90'>","null","Animation1",""
"","","","","","html-keyboard-response","94","435589","0.0-83.0","26","1","2025-01-23 06:30:07","6073afb29c8d06c5d8f22ae9f1371ff8","93.113.181.115","Mozilla/5.0 (Windows NT 10.0; Win64; x64) AppleWebKit/537.36 (KHTML, like Gecko) Chrome/131.0.0.0 Safari/537.36","WebKit","Chrome","131.0.0.0","Windows","10.0","https://app.prolific.com/","en-US,en;q=0.9","679146dcbca56d462eccdfef","679147d2997803490f072fae","6791e1e1915adb110c37e663","","null","<img    src='G_7.jpg' height='90'> <img    src='G_1.jpg' height='90'> <img     src='G_3.jpg' height='90'> <img     src='G_5.jpg' height='90'> <img     src='G_9.jpg' height='90'>","null","Animation1",""
"","","","","","html-keyboard-response","95","436097","0.0-84.0","26","1","2025-01-23 06:30:07","6073afb29c8d06c5d8f22ae9f1371ff8","93.113.181.115","Mozilla/5.0 (Windows NT 10.0; Win64; x64) AppleWebKit/537.36 (KHTML, like Gecko) Chrome/131.0.0.0 Safari/537.36","WebKit","Chrome","131.0.0.0","Windows","10.0","https://app.prolific.com/","en-US,en;q=0.9","679146dcbca56d462eccdfef","679147d2997803490f072fae","6791e1e1915adb110c37e663","","null","<img id='selected'    src='G_7.jpg' height='90'> <img    src='G_1.jpg' height='90'> <img     src='G_3.jpg' height='90'> <img     src='G_5.jpg' height='90'> <img     src='G_9.jpg' height='90'>","null","Animation1",""
"","","","","","html-keyboard-response","96","436614","0.0-85.0","26","1","2025-01-23 06:30:07","6073afb29c8d06c5d8f22ae9f1371ff8","93.113.181.115","Mozilla/5.0 (Windows NT 10.0; Win64; x64) AppleWebKit/537.36 (KHTML, like Gecko) Chrome/131.0.0.0 Safari/537.36","WebKit","Chrome","131.0.0.0","Windows","10.0","https://app.prolific.com/","en-US,en;q=0.9","679146dcbca56d462eccdfef","679147d2997803490f072fae","6791e1e1915adb110c37e663","","null","<img id='selected'    src='G_7.jpg' height='90'> <img id='selected'    src='G_1.jpg' height='90'> <img     src='G_3.jpg' height='90'> <img     src='G_5.jpg' height='90'> <img     src='G_9.jpg' height='90'>","null","Animation1",""
"","","","","","html-keyboard-response","97","437120","0.0-86.0","26","1","2025-01-23 06:30:07","6073afb29c8d06c5d8f22ae9f1371ff8","93.113.181.115","Mozilla/5.0 (Windows NT 10.0; Win64; x64) AppleWebKit/537.36 (KHTML, like Gecko) Chrome/131.0.0.0 Safari/537.36","WebKit","Chrome","131.0.0.0","Windows","10.0","https://app.prolific.com/","en-US,en;q=0.9","679146dcbca56d462eccdfef","679147d2997803490f072fae","6791e1e1915adb110c37e663","","null","<img id='swapped'    src='G_1.jpg' height='90'> <img id='swapped'    src='G_7.jpg' height='90'> <img     src='G_3.jpg' height='90'> <img     src='G_5.jpg' height='90'> <img     src='G_9.jpg' height='90'>","null","Animation1",""
"","","","","","html-keyboard-response","98","437433","0.0-87.0","26","1","2025-01-23 06:30:07","6073afb29c8d06c5d8f22ae9f1371ff8","93.113.181.115","Mozilla/5.0 (Windows NT 10.0; Win64; x64) AppleWebKit/537.36 (KHTML, like Gecko) Chrome/131.0.0.0 Safari/537.36","WebKit","Chrome","131.0.0.0","Windows","10.0","https://app.prolific.com/","en-US,en;q=0.9","679146dcbca56d462eccdfef","679147d2997803490f072fae","6791e1e1915adb110c37e663","","null","<img     src='G_1.jpg' height='90'> <img     src='G_7.jpg' height='90'> <img     src='G_3.jpg' height='90'> <img     src='G_5.jpg' height='90'> <img     src='G_9.jpg' height='90'>","null","Animation1",""
"","","","","","html-keyboard-response","99","442505","0.0-88.0","26","1","2025-01-23 06:30:07","6073afb29c8d06c5d8f22ae9f1371ff8","93.113.181.115","Mozilla/5.0 (Windows NT 10.0; Win64; x64) AppleWebKit/537.36 (KHTML, like Gecko) Chrome/131.0.0.0 Safari/537.36","WebKit","Chrome","131.0.0.0","Windows","10.0","https://app.prolific.com/","en-US,en;q=0.9","679146dcbca56d462eccdfef","679147d2997803490f072fae","6791e1e1915adb110c37e663","","5064","[""Did you notice any patterns? <br><br>Press Enter to watch that example again and follow the steps of Omgne Sort.""]","enter","",""
"","","","","","html-button-response","100","442911","0.0-89.0","26","1","2025-01-23 06:30:07","6073afb29c8d06c5d8f22ae9f1371ff8","93.113.181.115","Mozilla/5.0 (Windows NT 10.0; Win64; x64) AppleWebKit/537.36 (KHTML, like Gecko) Chrome/131.0.0.0 Safari/537.36","WebKit","Chrome","131.0.0.0","Windows","10.0","https://app.prolific.com/","en-US,en;q=0.9","679146dcbca56d462eccdfef","679147d2997803490f072fae","6791e1e1915adb110c37e663","","null","<img id='selected' src='G_9.jpg' height='90'> <img src='G_5.jpg' height='90'> <img src='G_3.jpg' height='90'> <img src='G_7.jpg' height='90'> <img src='G_1.jpg' height='90'>","null","Learning example 1",""
"","","","","","html-button-response","101","443236","0.0-90.0","26","1","2025-01-23 06:30:07","6073afb29c8d06c5d8f22ae9f1371ff8","93.113.181.115","Mozilla/5.0 (Windows NT 10.0; Win64; x64) AppleWebKit/537.36 (KHTML, like Gecko) Chrome/131.0.0.0 Safari/537.36","WebKit","Chrome","131.0.0.0","Windows","10.0","https://app.prolific.com/","en-US,en;q=0.9","679146dcbca56d462eccdfef","679147d2997803490f072fae","6791e1e1915adb110c37e663","","null","<img id='selected' src='G_9.jpg' height='90'> <img id='selected' src='G_5.jpg' height='90'> <img src='G_3.jpg' height='90'> <img src='G_7.jpg' height='90'> <img src='G_1.jpg' height='90'>","null","Learning example 1",""
"","","","","","html-button-response","102","443544","0.0-91.0","26","1","2025-01-23 06:30:07","6073afb29c8d06c5d8f22ae9f1371ff8","93.113.181.115","Mozilla/5.0 (Windows NT 10.0; Win64; x64) AppleWebKit/537.36 (KHTML, like Gecko) Chrome/131.0.0.0 Safari/537.36","WebKit","Chrome","131.0.0.0","Windows","10.0","https://app.prolific.com/","en-US,en;q=0.9","679146dcbca56d462eccdfef","679147d2997803490f072fae","6791e1e1915adb110c37e663","","null","<img id='swapped' src='G_5.jpg' height='90'> <img id='swapped' src='G_9.jpg' height='90'> <img src='G_3.jpg' height='90'> <img src='G_7.jpg' height='90'> <img src='G_1.jpg' height='90'>","null","Learning example 1",""
"","","","","","html-button-response","103","450733","0.0-92.0-0.0-0.0","26","1","2025-01-23 06:30:07","6073afb29c8d06c5d8f22ae9f1371ff8","93.113.181.115","Mozilla/5.0 (Windows NT 10.0; Win64; x64) AppleWebKit/537.36 (KHTML, like Gecko) Chrome/131.0.0.0 Safari/537.36","WebKit","Chrome","131.0.0.0","Windows","10.0","https://app.prolific.com/","en-US,en;q=0.9","679146dcbca56d462eccdfef","679147d2997803490f072fae","6791e1e1915adb110c37e663","","7180","<img id='swapped' src='G_5.jpg' height='90'> <img id='swapped' src='G_9.jpg' height='90'> <img src='G_3.jpg' height='90'> <img src='G_7.jpg' height='90'> <img src='G_1.jpg' height='90'>","0","Learning example 1",""
"","","","","","html-button-response","104","451598","0.0-92.1-0.1-0.1","26","1","2025-01-23 06:30:07","6073afb29c8d06c5d8f22ae9f1371ff8","93.113.181.115","Mozilla/5.0 (Windows NT 10.0; Win64; x64) AppleWebKit/537.36 (KHTML, like Gecko) Chrome/131.0.0.0 Safari/537.36","WebKit","Chrome","131.0.0.0","Windows","10.0","https://app.prolific.com/","en-US,en;q=0.9","679146dcbca56d462eccdfef","679147d2997803490f072fae","6791e1e1915adb110c37e663","","858","<img id='swapped' src='G_5.jpg' height='90'> <img id='swapped' src='G_9.jpg' height='90'> <img src='G_3.jpg' height='90'> <img src='G_7.jpg' height='90'> <img src='G_1.jpg' height='90'>","1","Learning example 1",""
"","","","","","html-button-response","105","451814","0.0-93.0","26","1","2025-01-23 06:30:07","6073afb29c8d06c5d8f22ae9f1371ff8","93.113.181.115","Mozilla/5.0 (Windows NT 10.0; Win64; x64) AppleWebKit/537.36 (KHTML, like Gecko) Chrome/131.0.0.0 Safari/537.36","WebKit","Chrome","131.0.0.0","Windows","10.0","https://app.prolific.com/","en-US,en;q=0.9","679146dcbca56d462eccdfef","679147d2997803490f072fae","6791e1e1915adb110c37e663","","null","<img  src='G_5.jpg' height='90'> <img  src='G_9.jpg' height='90'> <img src='G_3.jpg' height='90'> <img src='G_7.jpg' height='90'> <img src='G_1.jpg' height='90'>","null","Learning example 1",""
"","","","","","html-button-response","106","452224","0.0-94.0","26","1","2025-01-23 06:30:07","6073afb29c8d06c5d8f22ae9f1371ff8","93.113.181.115","Mozilla/5.0 (Windows NT 10.0; Win64; x64) AppleWebKit/537.36 (KHTML, like Gecko) Chrome/131.0.0.0 Safari/537.36","WebKit","Chrome","131.0.0.0","Windows","10.0","https://app.prolific.com/","en-US,en;q=0.9","679146dcbca56d462eccdfef","679147d2997803490f072fae","6791e1e1915adb110c37e663","","null","<img  src='G_5.jpg' height='90'> <img id='selected'  src='G_9.jpg' height='90'> <img src='G_3.jpg' height='90'> <img src='G_7.jpg' height='90'> <img src='G_1.jpg' height='90'>","null","Learning example 1",""
"","","","","","html-button-response","107","452538","0.0-95.0","26","1","2025-01-23 06:30:07","6073afb29c8d06c5d8f22ae9f1371ff8","93.113.181.115","Mozilla/5.0 (Windows NT 10.0; Win64; x64) AppleWebKit/537.36 (KHTML, like Gecko) Chrome/131.0.0.0 Safari/537.36","WebKit","Chrome","131.0.0.0","Windows","10.0","https://app.prolific.com/","en-US,en;q=0.9","679146dcbca56d462eccdfef","679147d2997803490f072fae","6791e1e1915adb110c37e663","","null","<img  src='G_5.jpg' height='90'> <img id='selected'  src='G_9.jpg' height='90'> <img id='selected' src='G_3.jpg' height='90'> <img src='G_7.jpg' height='90'> <img src='G_1.jpg' height='90'>","null","Learning example 1",""
"","","","","","html-button-response","108","452850","0.0-96.0","26","1","2025-01-23 06:30:07","6073afb29c8d06c5d8f22ae9f1371ff8","93.113.181.115","Mozilla/5.0 (Windows NT 10.0; Win64; x64) AppleWebKit/537.36 (KHTML, like Gecko) Chrome/131.0.0.0 Safari/537.36","WebKit","Chrome","131.0.0.0","Windows","10.0","https://app.prolific.com/","en-US,en;q=0.9","679146dcbca56d462eccdfef","679147d2997803490f072fae","6791e1e1915adb110c37e663","","null","<img  src='G_5.jpg' height='90'> <img id='swapped' src='G_3.jpg' height='90'> <img id='swapped'  src='G_9.jpg' height='90'> <img src='G_7.jpg' height='90'> <img src='G_1.jpg' height='90'>","null","Learning example 1",""
"","","","","","html-button-response","109","455090","0.0-97.0-0.0-0.0","26","1","2025-01-23 06:30:07","6073afb29c8d06c5d8f22ae9f1371ff8","93.113.181.115","Mozilla/5.0 (Windows NT 10.0; Win64; x64) AppleWebKit/537.36 (KHTML, like Gecko) Chrome/131.0.0.0 Safari/537.36","WebKit","Chrome","131.0.0.0","Windows","10.0","https://app.prolific.com/","en-US,en;q=0.9","679146dcbca56d462eccdfef","679147d2997803490f072fae","6791e1e1915adb110c37e663","","2236","<img  src='G_5.jpg' height='90'> <img id='swapped' src='G_3.jpg' height='90'> <img id='swapped'  src='G_9.jpg' height='90'> <img src='G_7.jpg' height='90'> <img src='G_1.jpg' height='90'>","1","Learning example 1",""
"","","","","","html-button-response","110","455991","0.0-97.1-0.1-0.1","26","1","2025-01-23 06:30:07","6073afb29c8d06c5d8f22ae9f1371ff8","93.113.181.115","Mozilla/5.0 (Windows NT 10.0; Win64; x64) AppleWebKit/537.36 (KHTML, like Gecko) Chrome/131.0.0.0 Safari/537.36","WebKit","Chrome","131.0.0.0","Windows","10.0","https://app.prolific.com/","en-US,en;q=0.9","679146dcbca56d462eccdfef","679147d2997803490f072fae","6791e1e1915adb110c37e663","","896","<img  src='G_5.jpg' height='90'> <img id='swapped' src='G_3.jpg' height='90'> <img id='swapped'  src='G_9.jpg' height='90'> <img src='G_7.jpg' height='90'> <img src='G_1.jpg' height='90'>","2","Learning example 1",""
"","","","","","html-button-response","111","456202","0.0-98.0","26","1","2025-01-23 06:30:07","6073afb29c8d06c5d8f22ae9f1371ff8","93.113.181.115","Mozilla/5.0 (Windows NT 10.0; Win64; x64) AppleWebKit/537.36 (KHTML, like Gecko) Chrome/131.0.0.0 Safari/537.36","WebKit","Chrome","131.0.0.0","Windows","10.0","https://app.prolific.com/","en-US,en;q=0.9","679146dcbca56d462eccdfef","679147d2997803490f072fae","6791e1e1915adb110c37e663","","null","<img  src='G_5.jpg' height='90'> <img  src='G_3.jpg' height='90'> <img   src='G_9.jpg' height='90'> <img src='G_7.jpg' height='90'> <img src='G_1.jpg' height='90'>","null","Learning example 1",""
"","","","","","html-button-response","112","456624","0.0-99.0","26","1","2025-01-23 06:30:07","6073afb29c8d06c5d8f22ae9f1371ff8","93.113.181.115","Mozilla/5.0 (Windows NT 10.0; Win64; x64) AppleWebKit/537.36 (KHTML, like Gecko) Chrome/131.0.0.0 Safari/537.36","WebKit","Chrome","131.0.0.0","Windows","10.0","https://app.prolific.com/","en-US,en;q=0.9","679146dcbca56d462eccdfef","679147d2997803490f072fae","6791e1e1915adb110c37e663","","null","<img id='selected'  src='G_5.jpg' height='90'> <img  src='G_3.jpg' height='90'> <img   src='G_9.jpg' height='90'> <img src='G_7.jpg' height='90'> <img src='G_1.jpg' height='90'>","null","Learning example 1",""
"","","","","","html-button-response","113","456939","0.0-100.0","26","1","2025-01-23 06:30:07","6073afb29c8d06c5d8f22ae9f1371ff8","93.113.181.115","Mozilla/5.0 (Windows NT 10.0; Win64; x64) AppleWebKit/537.36 (KHTML, like Gecko) Chrome/131.0.0.0 Safari/537.36","WebKit","Chrome","131.0.0.0","Windows","10.0","https://app.prolific.com/","en-US,en;q=0.9","679146dcbca56d462eccdfef","679147d2997803490f072fae","6791e1e1915adb110c37e663","","null","<img id='selected'  src='G_5.jpg' height='90'> <img id='selected'  src='G_3.jpg' height='90'> <img   src='G_9.jpg' height='90'> <img src='G_7.jpg' height='90'> <img src='G_1.jpg' height='90'>","null","Learning example 1",""
"","","","","","html-button-response","114","457258","0.0-101.0","26","1","2025-01-23 06:30:07","6073afb29c8d06c5d8f22ae9f1371ff8","93.113.181.115","Mozilla/5.0 (Windows NT 10.0; Win64; x64) AppleWebKit/537.36 (KHTML, like Gecko) Chrome/131.0.0.0 Safari/537.36","WebKit","Chrome","131.0.0.0","Windows","10.0","https://app.prolific.com/","en-US,en;q=0.9","679146dcbca56d462eccdfef","679147d2997803490f072fae","6791e1e1915adb110c37e663","","null","<img id='swapped'  src='G_3.jpg' height='90'> <img id='swapped'  src='G_5.jpg' height='90'> <img   src='G_9.jpg' height='90'> <img src='G_7.jpg' height='90'> <img src='G_1.jpg' height='90'>","null","Learning example 1",""
"","","","","","html-button-response","115","458766","0.0-102.0-0.0-0.0","26","1","2025-01-23 06:30:07","6073afb29c8d06c5d8f22ae9f1371ff8","93.113.181.115","Mozilla/5.0 (Windows NT 10.0; Win64; x64) AppleWebKit/537.36 (KHTML, like Gecko) Chrome/131.0.0.0 Safari/537.36","WebKit","Chrome","131.0.0.0","Windows","10.0","https://app.prolific.com/","en-US,en;q=0.9","679146dcbca56d462eccdfef","679147d2997803490f072fae","6791e1e1915adb110c37e663","","1497","<img id='swapped'  src='G_3.jpg' height='90'> <img id='swapped'  src='G_5.jpg' height='90'> <img   src='G_9.jpg' height='90'> <img src='G_7.jpg' height='90'> <img src='G_1.jpg' height='90'>","0","Learning example 1",""
"","","","","","html-button-response","116","459801","0.0-102.1-0.1-0.1","26","1","2025-01-23 06:30:07","6073afb29c8d06c5d8f22ae9f1371ff8","93.113.181.115","Mozilla/5.0 (Windows NT 10.0; Win64; x64) AppleWebKit/537.36 (KHTML, like Gecko) Chrome/131.0.0.0 Safari/537.36","WebKit","Chrome","131.0.0.0","Windows","10.0","https://app.prolific.com/","en-US,en;q=0.9","679146dcbca56d462eccdfef","679147d2997803490f072fae","6791e1e1915adb110c37e663","","1028","<img id='swapped'  src='G_3.jpg' height='90'> <img id='swapped'  src='G_5.jpg' height='90'> <img   src='G_9.jpg' height='90'> <img src='G_7.jpg' height='90'> <img src='G_1.jpg' height='90'>","1","Learning example 1",""
"","","","","","html-button-response","117","460016","0.0-103.0","26","1","2025-01-23 06:30:07","6073afb29c8d06c5d8f22ae9f1371ff8","93.113.181.115","Mozilla/5.0 (Windows NT 10.0; Win64; x64) AppleWebKit/537.36 (KHTML, like Gecko) Chrome/131.0.0.0 Safari/537.36","WebKit","Chrome","131.0.0.0","Windows","10.0","https://app.prolific.com/","en-US,en;q=0.9","679146dcbca56d462eccdfef","679147d2997803490f072fae","6791e1e1915adb110c37e663","","null","<img   src='G_3.jpg' height='90'> <img   src='G_5.jpg' height='90'> <img   src='G_9.jpg' height='90'> <img src='G_7.jpg' height='90'> <img src='G_1.jpg' height='90'>","null","Learning example 1",""
"","","","","","html-button-response","118","460440","0.0-104.0","26","1","2025-01-23 06:30:07","6073afb29c8d06c5d8f22ae9f1371ff8","93.113.181.115","Mozilla/5.0 (Windows NT 10.0; Win64; x64) AppleWebKit/537.36 (KHTML, like Gecko) Chrome/131.0.0.0 Safari/537.36","WebKit","Chrome","131.0.0.0","Windows","10.0","https://app.prolific.com/","en-US,en;q=0.9","679146dcbca56d462eccdfef","679147d2997803490f072fae","6791e1e1915adb110c37e663","","null","<img   src='G_3.jpg' height='90'> <img   src='G_5.jpg' height='90'> <img id='selected'   src='G_9.jpg' height='90'> <img src='G_7.jpg' height='90'> <img src='G_1.jpg' height='90'>","null","Learning example 1",""
"","","","","","html-button-response","119","460759","0.0-105.0","26","1","2025-01-23 06:30:07","6073afb29c8d06c5d8f22ae9f1371ff8","93.113.181.115","Mozilla/5.0 (Windows NT 10.0; Win64; x64) AppleWebKit/537.36 (KHTML, like Gecko) Chrome/131.0.0.0 Safari/537.36","WebKit","Chrome","131.0.0.0","Windows","10.0","https://app.prolific.com/","en-US,en;q=0.9","679146dcbca56d462eccdfef","679147d2997803490f072fae","6791e1e1915adb110c37e663","","null","<img   src='G_3.jpg' height='90'> <img   src='G_5.jpg' height='90'> <img id='selected'   src='G_9.jpg' height='90'> <img id='selected' src='G_7.jpg' height='90'> <img src='G_1.jpg' height='90'>","null","Learning example 1",""
"","","","","","html-button-response","120","461074","0.0-106.0","26","1","2025-01-23 06:30:07","6073afb29c8d06c5d8f22ae9f1371ff8","93.113.181.115","Mozilla/5.0 (Windows NT 10.0; Win64; x64) AppleWebKit/537.36 (KHTML, like Gecko) Chrome/131.0.0.0 Safari/537.36","WebKit","Chrome","131.0.0.0","Windows","10.0","https://app.prolific.com/","en-US,en;q=0.9","679146dcbca56d462eccdfef","679147d2997803490f072fae","6791e1e1915adb110c37e663","","null","<img   src='G_3.jpg' height='90'> <img   src='G_5.jpg' height='90'> <img id='swapped' src='G_7.jpg' height='90'> <img id='swapped'   src='G_9.jpg' height='90'> <img src='G_1.jpg' height='90'>","null","Learning example 1",""
"","","","","","html-button-response","121","462475","0.0-107.0-0.0-0.0","26","1","2025-01-23 06:30:07","6073afb29c8d06c5d8f22ae9f1371ff8","93.113.181.115","Mozilla/5.0 (Windows NT 10.0; Win64; x64) AppleWebKit/537.36 (KHTML, like Gecko) Chrome/131.0.0.0 Safari/537.36","WebKit","Chrome","131.0.0.0","Windows","10.0","https://app.prolific.com/","en-US,en;q=0.9","679146dcbca56d462eccdfef","679147d2997803490f072fae","6791e1e1915adb110c37e663","","1389","<img   src='G_3.jpg' height='90'> <img   src='G_5.jpg' height='90'> <img id='swapped' src='G_7.jpg' height='90'> <img id='swapped'   src='G_9.jpg' height='90'> <img src='G_1.jpg' height='90'>","2","Learning example 1",""
"","","","","","html-button-response","122","463692","0.0-107.1-0.1-0.1","26","1","2025-01-23 06:30:07","6073afb29c8d06c5d8f22ae9f1371ff8","93.113.181.115","Mozilla/5.0 (Windows NT 10.0; Win64; x64) AppleWebKit/537.36 (KHTML, like Gecko) Chrome/131.0.0.0 Safari/537.36","WebKit","Chrome","131.0.0.0","Windows","10.0","https://app.prolific.com/","en-US,en;q=0.9","679146dcbca56d462eccdfef","679147d2997803490f072fae","6791e1e1915adb110c37e663","","1210","<img   src='G_3.jpg' height='90'> <img   src='G_5.jpg' height='90'> <img id='swapped' src='G_7.jpg' height='90'> <img id='swapped'   src='G_9.jpg' height='90'> <img src='G_1.jpg' height='90'>","3","Learning example 1",""
"","","","","","html-button-response","123","463904","0.0-108.0","26","1","2025-01-23 06:30:07","6073afb29c8d06c5d8f22ae9f1371ff8","93.113.181.115","Mozilla/5.0 (Windows NT 10.0; Win64; x64) AppleWebKit/537.36 (KHTML, like Gecko) Chrome/131.0.0.0 Safari/537.36","WebKit","Chrome","131.0.0.0","Windows","10.0","https://app.prolific.com/","en-US,en;q=0.9","679146dcbca56d462eccdfef","679147d2997803490f072fae","6791e1e1915adb110c37e663","","null","<img   src='G_3.jpg' height='90'> <img   src='G_5.jpg' height='90'> <img  src='G_7.jpg' height='90'> <img    src='G_9.jpg' height='90'> <img src='G_1.jpg' height='90'>","null","Learning example 1",""
"","","","","","html-button-response","124","464326","0.0-109.0","26","1","2025-01-23 06:30:07","6073afb29c8d06c5d8f22ae9f1371ff8","93.113.181.115","Mozilla/5.0 (Windows NT 10.0; Win64; x64) AppleWebKit/537.36 (KHTML, like Gecko) Chrome/131.0.0.0 Safari/537.36","WebKit","Chrome","131.0.0.0","Windows","10.0","https://app.prolific.com/","en-US,en;q=0.9","679146dcbca56d462eccdfef","679147d2997803490f072fae","6791e1e1915adb110c37e663","","null","<img   src='G_3.jpg' height='90'> <img id='selected'   src='G_5.jpg' height='90'> <img  src='G_7.jpg' height='90'> <img    src='G_9.jpg' height='90'> <img src='G_1.jpg' height='90'>","null","Learning example 1",""
"","","","","","html-button-response","125","464642","0.0-110.0","26","1","2025-01-23 06:30:07","6073afb29c8d06c5d8f22ae9f1371ff8","93.113.181.115","Mozilla/5.0 (Windows NT 10.0; Win64; x64) AppleWebKit/537.36 (KHTML, like Gecko) Chrome/131.0.0.0 Safari/537.36","WebKit","Chrome","131.0.0.0","Windows","10.0","https://app.prolific.com/","en-US,en;q=0.9","679146dcbca56d462eccdfef","679147d2997803490f072fae","6791e1e1915adb110c37e663","","null","<img   src='G_3.jpg' height='90'> <img id='selected'   src='G_5.jpg' height='90'> <img id='selected'  src='G_7.jpg' height='90'> <img    src='G_9.jpg' height='90'> <img src='G_1.jpg' height='90'>","null","Learning example 1",""
"","","","","","html-button-response","126","464950","0.0-111.0","26","1","2025-01-23 06:30:07","6073afb29c8d06c5d8f22ae9f1371ff8","93.113.181.115","Mozilla/5.0 (Windows NT 10.0; Win64; x64) AppleWebKit/537.36 (KHTML, like Gecko) Chrome/131.0.0.0 Safari/537.36","WebKit","Chrome","131.0.0.0","Windows","10.0","https://app.prolific.com/","en-US,en;q=0.9","679146dcbca56d462eccdfef","679147d2997803490f072fae","6791e1e1915adb110c37e663","","null","<img   src='G_3.jpg' height='90'> <img id='swapped'  src='G_7.jpg' height='90'> <img id='swapped'   src='G_5.jpg' height='90'> <img    src='G_9.jpg' height='90'> <img src='G_1.jpg' height='90'>","null","Learning example 1",""
"","","","","","html-button-response","127","466436","0.0-112.0-0.0-0.0","26","1","2025-01-23 06:30:07","6073afb29c8d06c5d8f22ae9f1371ff8","93.113.181.115","Mozilla/5.0 (Windows NT 10.0; Win64; x64) AppleWebKit/537.36 (KHTML, like Gecko) Chrome/131.0.0.0 Safari/537.36","WebKit","Chrome","131.0.0.0","Windows","10.0","https://app.prolific.com/","en-US,en;q=0.9","679146dcbca56d462eccdfef","679147d2997803490f072fae","6791e1e1915adb110c37e663","","1478","<img   src='G_3.jpg' height='90'> <img id='swapped'  src='G_7.jpg' height='90'> <img id='swapped'   src='G_5.jpg' height='90'> <img    src='G_9.jpg' height='90'> <img src='G_1.jpg' height='90'>","1","Learning example 1",""
"","","","","","html-button-response","128","467301","0.0-112.1-0.1-0.1","26","1","2025-01-23 06:30:07","6073afb29c8d06c5d8f22ae9f1371ff8","93.113.181.115","Mozilla/5.0 (Windows NT 10.0; Win64; x64) AppleWebKit/537.36 (KHTML, like Gecko) Chrome/131.0.0.0 Safari/537.36","WebKit","Chrome","131.0.0.0","Windows","10.0","https://app.prolific.com/","en-US,en;q=0.9","679146dcbca56d462eccdfef","679147d2997803490f072fae","6791e1e1915adb110c37e663","","858","<img   src='G_3.jpg' height='90'> <img id='swapped'  src='G_7.jpg' height='90'> <img id='swapped'   src='G_5.jpg' height='90'> <img    src='G_9.jpg' height='90'> <img src='G_1.jpg' height='90'>","2","Learning example 1",""
"","","","","","html-button-response","129","467507","0.0-113.0","26","1","2025-01-23 06:30:07","6073afb29c8d06c5d8f22ae9f1371ff8","93.113.181.115","Mozilla/5.0 (Windows NT 10.0; Win64; x64) AppleWebKit/537.36 (KHTML, like Gecko) Chrome/131.0.0.0 Safari/537.36","WebKit","Chrome","131.0.0.0","Windows","10.0","https://app.prolific.com/","en-US,en;q=0.9","679146dcbca56d462eccdfef","679147d2997803490f072fae","6791e1e1915adb110c37e663","","null","<img   src='G_3.jpg' height='90'> <img   src='G_7.jpg' height='90'> <img    src='G_5.jpg' height='90'> <img    src='G_9.jpg' height='90'> <img src='G_1.jpg' height='90'>","null","Learning example 1",""
"","","","","","html-button-response","130","467927","0.0-114.0","26","1","2025-01-23 06:30:07","6073afb29c8d06c5d8f22ae9f1371ff8","93.113.181.115","Mozilla/5.0 (Windows NT 10.0; Win64; x64) AppleWebKit/537.36 (KHTML, like Gecko) Chrome/131.0.0.0 Safari/537.36","WebKit","Chrome","131.0.0.0","Windows","10.0","https://app.prolific.com/","en-US,en;q=0.9","679146dcbca56d462eccdfef","679147d2997803490f072fae","6791e1e1915adb110c37e663","","null","<img id='selected'   src='G_3.jpg' height='90'> <img   src='G_7.jpg' height='90'> <img    src='G_5.jpg' height='90'> <img    src='G_9.jpg' height='90'> <img src='G_1.jpg' height='90'>","null","Learning example 1",""
"","","","","","html-button-response","131","468239","0.0-115.0","26","1","2025-01-23 06:30:07","6073afb29c8d06c5d8f22ae9f1371ff8","93.113.181.115","Mozilla/5.0 (Windows NT 10.0; Win64; x64) AppleWebKit/537.36 (KHTML, like Gecko) Chrome/131.0.0.0 Safari/537.36","WebKit","Chrome","131.0.0.0","Windows","10.0","https://app.prolific.com/","en-US,en;q=0.9","679146dcbca56d462eccdfef","679147d2997803490f072fae","6791e1e1915adb110c37e663","","null","<img id='selected'   src='G_3.jpg' height='90'> <img id='selected'   src='G_7.jpg' height='90'> <img    src='G_5.jpg' height='90'> <img    src='G_9.jpg' height='90'> <img src='G_1.jpg' height='90'>","null","Learning example 1",""
"","","","","","html-button-response","132","468553","0.0-116.0","26","1","2025-01-23 06:30:07","6073afb29c8d06c5d8f22ae9f1371ff8","93.113.181.115","Mozilla/5.0 (Windows NT 10.0; Win64; x64) AppleWebKit/537.36 (KHTML, like Gecko) Chrome/131.0.0.0 Safari/537.36","WebKit","Chrome","131.0.0.0","Windows","10.0","https://app.prolific.com/","en-US,en;q=0.9","679146dcbca56d462eccdfef","679147d2997803490f072fae","6791e1e1915adb110c37e663","","null","<img id='swapped'   src='G_7.jpg' height='90'> <img id='swapped'   src='G_3.jpg' height='90'> <img    src='G_5.jpg' height='90'> <img    src='G_9.jpg' height='90'> <img src='G_1.jpg' height='90'>","null","Learning example 1",""
"","","","","","html-button-response","133","472076","0.0-117.0-0.0-0.0","26","1","2025-01-23 06:30:07","6073afb29c8d06c5d8f22ae9f1371ff8","93.113.181.115","Mozilla/5.0 (Windows NT 10.0; Win64; x64) AppleWebKit/537.36 (KHTML, like Gecko) Chrome/131.0.0.0 Safari/537.36","WebKit","Chrome","131.0.0.0","Windows","10.0","https://app.prolific.com/","en-US,en;q=0.9","679146dcbca56d462eccdfef","679147d2997803490f072fae","6791e1e1915adb110c37e663","","3518","<img id='swapped'   src='G_7.jpg' height='90'> <img id='swapped'   src='G_3.jpg' height='90'> <img    src='G_5.jpg' height='90'> <img    src='G_9.jpg' height='90'> <img src='G_1.jpg' height='90'>","1","Learning example 1",""
"","","","","","html-button-response","134","472669","0.0-117.1-0.1-0.1","26","1","2025-01-23 06:30:07","6073afb29c8d06c5d8f22ae9f1371ff8","93.113.181.115","Mozilla/5.0 (Windows NT 10.0; Win64; x64) AppleWebKit/537.36 (KHTML, like Gecko) Chrome/131.0.0.0 Safari/537.36","WebKit","Chrome","131.0.0.0","Windows","10.0","https://app.prolific.com/","en-US,en;q=0.9","679146dcbca56d462eccdfef","679147d2997803490f072fae","6791e1e1915adb110c37e663","","584","<img id='swapped'   src='G_7.jpg' height='90'> <img id='swapped'   src='G_3.jpg' height='90'> <img    src='G_5.jpg' height='90'> <img    src='G_9.jpg' height='90'> <img src='G_1.jpg' height='90'>","0","Learning example 1",""
"","","","","","html-button-response","135","472890","0.0-118.0","26","1","2025-01-23 06:30:07","6073afb29c8d06c5d8f22ae9f1371ff8","93.113.181.115","Mozilla/5.0 (Windows NT 10.0; Win64; x64) AppleWebKit/537.36 (KHTML, like Gecko) Chrome/131.0.0.0 Safari/537.36","WebKit","Chrome","131.0.0.0","Windows","10.0","https://app.prolific.com/","en-US,en;q=0.9","679146dcbca56d462eccdfef","679147d2997803490f072fae","6791e1e1915adb110c37e663","","null","<img    src='G_7.jpg' height='90'> <img    src='G_3.jpg' height='90'> <img    src='G_5.jpg' height='90'> <img    src='G_9.jpg' height='90'> <img src='G_1.jpg' height='90'>","null","Learning example 1",""
"","","","","","html-button-response","136","473314","0.0-119.0","26","1","2025-01-23 06:30:07","6073afb29c8d06c5d8f22ae9f1371ff8","93.113.181.115","Mozilla/5.0 (Windows NT 10.0; Win64; x64) AppleWebKit/537.36 (KHTML, like Gecko) Chrome/131.0.0.0 Safari/537.36","WebKit","Chrome","131.0.0.0","Windows","10.0","https://app.prolific.com/","en-US,en;q=0.9","679146dcbca56d462eccdfef","679147d2997803490f072fae","6791e1e1915adb110c37e663","","null","<img    src='G_7.jpg' height='90'> <img    src='G_3.jpg' height='90'> <img    src='G_5.jpg' height='90'> <img id='selected'    src='G_9.jpg' height='90'> <img src='G_1.jpg' height='90'>","null","Learning example 1",""
"","","","","","html-button-response","137","473627","0.0-120.0","26","1","2025-01-23 06:30:07","6073afb29c8d06c5d8f22ae9f1371ff8","93.113.181.115","Mozilla/5.0 (Windows NT 10.0; Win64; x64) AppleWebKit/537.36 (KHTML, like Gecko) Chrome/131.0.0.0 Safari/537.36","WebKit","Chrome","131.0.0.0","Windows","10.0","https://app.prolific.com/","en-US,en;q=0.9","679146dcbca56d462eccdfef","679147d2997803490f072fae","6791e1e1915adb110c37e663","","null","<img    src='G_7.jpg' height='90'> <img    src='G_3.jpg' height='90'> <img    src='G_5.jpg' height='90'> <img id='selected'    src='G_9.jpg' height='90'> <img id='selected' src='G_1.jpg' height='90'>","null","Learning example 1",""
"","","","","","html-button-response","138","473937","0.0-121.0","26","1","2025-01-23 06:30:07","6073afb29c8d06c5d8f22ae9f1371ff8","93.113.181.115","Mozilla/5.0 (Windows NT 10.0; Win64; x64) AppleWebKit/537.36 (KHTML, like Gecko) Chrome/131.0.0.0 Safari/537.36","WebKit","Chrome","131.0.0.0","Windows","10.0","https://app.prolific.com/","en-US,en;q=0.9","679146dcbca56d462eccdfef","679147d2997803490f072fae","6791e1e1915adb110c37e663","","null","<img    src='G_7.jpg' height='90'> <img    src='G_3.jpg' height='90'> <img    src='G_5.jpg' height='90'> <img id='swapped' src='G_1.jpg' height='90'> <img id='swapped'    src='G_9.jpg' height='90'>","null","Learning example 1",""
"","","","","","html-button-response","139","476700","0.0-122.0-0.0-0.0","26","1","2025-01-23 06:30:07","6073afb29c8d06c5d8f22ae9f1371ff8","93.113.181.115","Mozilla/5.0 (Windows NT 10.0; Win64; x64) AppleWebKit/537.36 (KHTML, like Gecko) Chrome/131.0.0.0 Safari/537.36","WebKit","Chrome","131.0.0.0","Windows","10.0","https://app.prolific.com/","en-US,en;q=0.9","679146dcbca56d462eccdfef","679147d2997803490f072fae","6791e1e1915adb110c37e663","","2750","<img    src='G_7.jpg' height='90'> <img    src='G_3.jpg' height='90'> <img    src='G_5.jpg' height='90'> <img id='swapped' src='G_1.jpg' height='90'> <img id='swapped'    src='G_9.jpg' height='90'>","3","Learning example 1",""
"","","","","","html-button-response","140","477394","0.0-122.1-0.1-0.1","26","1","2025-01-23 06:30:07","6073afb29c8d06c5d8f22ae9f1371ff8","93.113.181.115","Mozilla/5.0 (Windows NT 10.0; Win64; x64) AppleWebKit/537.36 (KHTML, like Gecko) Chrome/131.0.0.0 Safari/537.36","WebKit","Chrome","131.0.0.0","Windows","10.0","https://app.prolific.com/","en-US,en;q=0.9","679146dcbca56d462eccdfef","679147d2997803490f072fae","6791e1e1915adb110c37e663","","689","<img    src='G_7.jpg' height='90'> <img    src='G_3.jpg' height='90'> <img    src='G_5.jpg' height='90'> <img id='swapped' src='G_1.jpg' height='90'> <img id='swapped'    src='G_9.jpg' height='90'>","4","Learning example 1",""
"","","","","","html-button-response","141","477610","0.0-123.0","26","1","2025-01-23 06:30:07","6073afb29c8d06c5d8f22ae9f1371ff8","93.113.181.115","Mozilla/5.0 (Windows NT 10.0; Win64; x64) AppleWebKit/537.36 (KHTML, like Gecko) Chrome/131.0.0.0 Safari/537.36","WebKit","Chrome","131.0.0.0","Windows","10.0","https://app.prolific.com/","en-US,en;q=0.9","679146dcbca56d462eccdfef","679147d2997803490f072fae","6791e1e1915adb110c37e663","","null","<img    src='G_7.jpg' height='90'> <img    src='G_3.jpg' height='90'> <img    src='G_5.jpg' height='90'> <img  src='G_1.jpg' height='90'> <img     src='G_9.jpg' height='90'>","null","Learning example 1",""
"","","","","","html-button-response","142","478020","0.0-124.0","26","1","2025-01-23 06:30:07","6073afb29c8d06c5d8f22ae9f1371ff8","93.113.181.115","Mozilla/5.0 (Windows NT 10.0; Win64; x64) AppleWebKit/537.36 (KHTML, like Gecko) Chrome/131.0.0.0 Safari/537.36","WebKit","Chrome","131.0.0.0","Windows","10.0","https://app.prolific.com/","en-US,en;q=0.9","679146dcbca56d462eccdfef","679147d2997803490f072fae","6791e1e1915adb110c37e663","","null","<img    src='G_7.jpg' height='90'> <img    src='G_3.jpg' height='90'> <img id='selected'    src='G_5.jpg' height='90'> <img  src='G_1.jpg' height='90'> <img     src='G_9.jpg' height='90'>","null","Learning example 1",""
"","","","","","html-button-response","143","478343","0.0-125.0","26","1","2025-01-23 06:30:07","6073afb29c8d06c5d8f22ae9f1371ff8","93.113.181.115","Mozilla/5.0 (Windows NT 10.0; Win64; x64) AppleWebKit/537.36 (KHTML, like Gecko) Chrome/131.0.0.0 Safari/537.36","WebKit","Chrome","131.0.0.0","Windows","10.0","https://app.prolific.com/","en-US,en;q=0.9","679146dcbca56d462eccdfef","679147d2997803490f072fae","6791e1e1915adb110c37e663","","null","<img    src='G_7.jpg' height='90'> <img    src='G_3.jpg' height='90'> <img id='selected'    src='G_5.jpg' height='90'> <img id='selected'  src='G_1.jpg' height='90'> <img     src='G_9.jpg' height='90'>","null","Learning example 1",""
"","","","","","html-button-response","144","478659","0.0-126.0","26","1","2025-01-23 06:30:07","6073afb29c8d06c5d8f22ae9f1371ff8","93.113.181.115","Mozilla/5.0 (Windows NT 10.0; Win64; x64) AppleWebKit/537.36 (KHTML, like Gecko) Chrome/131.0.0.0 Safari/537.36","WebKit","Chrome","131.0.0.0","Windows","10.0","https://app.prolific.com/","en-US,en;q=0.9","679146dcbca56d462eccdfef","679147d2997803490f072fae","6791e1e1915adb110c37e663","","null","<img    src='G_7.jpg' height='90'> <img    src='G_3.jpg' height='90'> <img id='swapped'  src='G_1.jpg' height='90'> <img id='swapped'    src='G_5.jpg' height='90'> <img     src='G_9.jpg' height='90'>","null","Learning example 1",""
"","","","","","html-button-response","145","480812","0.0-127.0-0.0-0.0","26","1","2025-01-23 06:30:07","6073afb29c8d06c5d8f22ae9f1371ff8","93.113.181.115","Mozilla/5.0 (Windows NT 10.0; Win64; x64) AppleWebKit/537.36 (KHTML, like Gecko) Chrome/131.0.0.0 Safari/537.36","WebKit","Chrome","131.0.0.0","Windows","10.0","https://app.prolific.com/","en-US,en;q=0.9","679146dcbca56d462eccdfef","679147d2997803490f072fae","6791e1e1915adb110c37e663","","2140","<img    src='G_7.jpg' height='90'> <img    src='G_3.jpg' height='90'> <img id='swapped'  src='G_1.jpg' height='90'> <img id='swapped'    src='G_5.jpg' height='90'> <img     src='G_9.jpg' height='90'>","3","Learning example 1",""
"","","","","","html-button-response","146","481566","0.0-127.1-0.1-0.1","26","1","2025-01-23 06:30:07","6073afb29c8d06c5d8f22ae9f1371ff8","93.113.181.115","Mozilla/5.0 (Windows NT 10.0; Win64; x64) AppleWebKit/537.36 (KHTML, like Gecko) Chrome/131.0.0.0 Safari/537.36","WebKit","Chrome","131.0.0.0","Windows","10.0","https://app.prolific.com/","en-US,en;q=0.9","679146dcbca56d462eccdfef","679147d2997803490f072fae","6791e1e1915adb110c37e663","","748","<img    src='G_7.jpg' height='90'> <img    src='G_3.jpg' height='90'> <img id='swapped'  src='G_1.jpg' height='90'> <img id='swapped'    src='G_5.jpg' height='90'> <img     src='G_9.jpg' height='90'>","2","Learning example 1",""
"","","","","","html-button-response","147","481775","0.0-128.0","26","1","2025-01-23 06:30:07","6073afb29c8d06c5d8f22ae9f1371ff8","93.113.181.115","Mozilla/5.0 (Windows NT 10.0; Win64; x64) AppleWebKit/537.36 (KHTML, like Gecko) Chrome/131.0.0.0 Safari/537.36","WebKit","Chrome","131.0.0.0","Windows","10.0","https://app.prolific.com/","en-US,en;q=0.9","679146dcbca56d462eccdfef","679147d2997803490f072fae","6791e1e1915adb110c37e663","","null","<img    src='G_7.jpg' height='90'> <img    src='G_3.jpg' height='90'> <img   src='G_1.jpg' height='90'> <img     src='G_5.jpg' height='90'> <img     src='G_9.jpg' height='90'>","null","Learning example 1",""
"","","","","","html-button-response","148","482198","0.0-129.0","26","1","2025-01-23 06:30:07","6073afb29c8d06c5d8f22ae9f1371ff8","93.113.181.115","Mozilla/5.0 (Windows NT 10.0; Win64; x64) AppleWebKit/537.36 (KHTML, like Gecko) Chrome/131.0.0.0 Safari/537.36","WebKit","Chrome","131.0.0.0","Windows","10.0","https://app.prolific.com/","en-US,en;q=0.9","679146dcbca56d462eccdfef","679147d2997803490f072fae","6791e1e1915adb110c37e663","","null","<img    src='G_7.jpg' height='90'> <img id='selected'    src='G_3.jpg' height='90'> <img   src='G_1.jpg' height='90'> <img     src='G_5.jpg' height='90'> <img     src='G_9.jpg' height='90'>","null","Learning example 1",""
"","","","","","html-button-response","149","482512","0.0-130.0","26","1","2025-01-23 06:30:07","6073afb29c8d06c5d8f22ae9f1371ff8","93.113.181.115","Mozilla/5.0 (Windows NT 10.0; Win64; x64) AppleWebKit/537.36 (KHTML, like Gecko) Chrome/131.0.0.0 Safari/537.36","WebKit","Chrome","131.0.0.0","Windows","10.0","https://app.prolific.com/","en-US,en;q=0.9","679146dcbca56d462eccdfef","679147d2997803490f072fae","6791e1e1915adb110c37e663","","null","<img    src='G_7.jpg' height='90'> <img id='selected'    src='G_3.jpg' height='90'> <img id='selected'   src='G_1.jpg' height='90'> <img     src='G_5.jpg' height='90'> <img     src='G_9.jpg' height='90'>","null","Learning example 1",""
"","","","","","html-button-response","150","482830","0.0-131.0","26","1","2025-01-23 06:30:07","6073afb29c8d06c5d8f22ae9f1371ff8","93.113.181.115","Mozilla/5.0 (Windows NT 10.0; Win64; x64) AppleWebKit/537.36 (KHTML, like Gecko) Chrome/131.0.0.0 Safari/537.36","WebKit","Chrome","131.0.0.0","Windows","10.0","https://app.prolific.com/","en-US,en;q=0.9","679146dcbca56d462eccdfef","679147d2997803490f072fae","6791e1e1915adb110c37e663","","null","<img    src='G_7.jpg' height='90'> <img id='swapped'   src='G_1.jpg' height='90'> <img id='swapped'    src='G_3.jpg' height='90'> <img     src='G_5.jpg' height='90'> <img     src='G_9.jpg' height='90'>","null","Learning example 1",""
"","","","","","html-button-response","151","485617","0.0-132.0-0.0-0.0","26","1","2025-01-23 06:30:07","6073afb29c8d06c5d8f22ae9f1371ff8","93.113.181.115","Mozilla/5.0 (Windows NT 10.0; Win64; x64) AppleWebKit/537.36 (KHTML, like Gecko) Chrome/131.0.0.0 Safari/537.36","WebKit","Chrome","131.0.0.0","Windows","10.0","https://app.prolific.com/","en-US,en;q=0.9","679146dcbca56d462eccdfef","679147d2997803490f072fae","6791e1e1915adb110c37e663","","2776","<img    src='G_7.jpg' height='90'> <img id='swapped'   src='G_1.jpg' height='90'> <img id='swapped'    src='G_3.jpg' height='90'> <img     src='G_5.jpg' height='90'> <img     src='G_9.jpg' height='90'>","2","Learning example 1",""
"","","","","","html-button-response","152","486200","0.0-132.1-0.1-0.1","26","1","2025-01-23 06:30:07","6073afb29c8d06c5d8f22ae9f1371ff8","93.113.181.115","Mozilla/5.0 (Windows NT 10.0; Win64; x64) AppleWebKit/537.36 (KHTML, like Gecko) Chrome/131.0.0.0 Safari/537.36","WebKit","Chrome","131.0.0.0","Windows","10.0","https://app.prolific.com/","en-US,en;q=0.9","679146dcbca56d462eccdfef","679147d2997803490f072fae","6791e1e1915adb110c37e663","","575","<img    src='G_7.jpg' height='90'> <img id='swapped'   src='G_1.jpg' height='90'> <img id='swapped'    src='G_3.jpg' height='90'> <img     src='G_5.jpg' height='90'> <img     src='G_9.jpg' height='90'>","1","Learning example 1",""
