"success","timeout","failed_images","failed_audio","failed_video","trial_type","trial_index","time_elapsed","internal_node_id","run_id","condition","recorded_at","source_code_version","ip","user_agent","device","browser","browser_version","platform","platform_version","referer","accept_language","PROLIFIC_PID","STUDY_ID","SESSION_ID","view_history","rt","stimulus","response","phase","question_order"
"true","false","[]","[]","[]","preload","0","907","0.0-0.0","27","1","2025-01-25 07:48:20","ce241dad9188715340bebbd1a8cad6cc","73.231.147.146","Mozilla/5.0 (Windows NT 10.0; Win64; x64) AppleWebKit/537.36 (KHTML, like Gecko) Chrome/131.0.0.0 Safari/537.36","WebKit","Chrome","131.0.0.0","Windows","10.0","https://app.prolific.com/","en,zh-CN;q=0.9,zh;q=0.8,ja;q=0.7,zh-TW;q=0.6","6500b3922f1493c553f2037f","67949641171f97c04e14fb34","0eyrvjnk9si","","","","","",""
"","","","","","instructions","1","4330","0.0-1.0","27","1","2025-01-25 07:48:20","ce241dad9188715340bebbd1a8cad6cc","73.231.147.146","Mozilla/5.0 (Windows NT 10.0; Win64; x64) AppleWebKit/537.36 (KHTML, like Gecko) Chrome/131.0.0.0 Safari/537.36","WebKit","Chrome","131.0.0.0","Windows","10.0","https://app.prolific.com/","en,zh-CN;q=0.9,zh;q=0.8,ja;q=0.7,zh-TW;q=0.6","6500b3922f1493c553f2037f","67949641171f97c04e14fb34","0eyrvjnk9si","[{""page_index"":0,""viewing_time"":3421}]","3422","","","",""
"","","","","","html-keyboard-response","2","4832","0.0-2.0","27","1","2025-01-25 07:48:20","ce241dad9188715340bebbd1a8cad6cc","73.231.147.146","Mozilla/5.0 (Windows NT 10.0; Win64; x64) AppleWebKit/537.36 (KHTML, like Gecko) Chrome/131.0.0.0 Safari/537.36","WebKit","Chrome","131.0.0.0","Windows","10.0","https://app.prolific.com/","en,zh-CN;q=0.9,zh;q=0.8,ja;q=0.7,zh-TW;q=0.6","6500b3922f1493c553f2037f","67949641171f97c04e14fb34","0eyrvjnk9si","","null","<p> + <p/>","null","",""
"","","","","","instructions","3","21308","0.0-3.0","27","1","2025-01-25 07:48:20","ce241dad9188715340bebbd1a8cad6cc","73.231.147.146","Mozilla/5.0 (Windows NT 10.0; Win64; x64) AppleWebKit/537.36 (KHTML, like Gecko) Chrome/131.0.0.0 Safari/537.36","WebKit","Chrome","131.0.0.0","Windows","10.0","https://app.prolific.com/","en,zh-CN;q=0.9,zh;q=0.8,ja;q=0.7,zh-TW;q=0.6","6500b3922f1493c553f2037f","67949641171f97c04e14fb34","0eyrvjnk9si","[{""page_index"":0,""viewing_time"":2104},{""page_index"":1,""viewing_time"":7044},{""page_index"":2,""viewing_time"":1849},{""page_index"":3,""viewing_time"":1440},{""page_index"":4,""viewing_time"":4038}]","16476","","","",""
"","","","","","html-button-response","4","22746","0.0-4.0-0.0-0.0","27","1","2025-01-25 07:48:20","ce241dad9188715340bebbd1a8cad6cc","73.231.147.146","Mozilla/5.0 (Windows NT 10.0; Win64; x64) AppleWebKit/537.36 (KHTML, like Gecko) Chrome/131.0.0.0 Safari/537.36","WebKit","Chrome","131.0.0.0","Windows","10.0","https://app.prolific.com/","en,zh-CN;q=0.9,zh;q=0.8,ja;q=0.7,zh-TW;q=0.6","6500b3922f1493c553f2037f","67949641171f97c04e14fb34","0eyrvjnk9si","","1433","","5","Intro Trial",""
"","","","","","html-keyboard-response","5","23264","0.0-5.0","27","1","2025-01-25 07:48:20","ce241dad9188715340bebbd1a8cad6cc","73.231.147.146","Mozilla/5.0 (Windows NT 10.0; Win64; x64) AppleWebKit/537.36 (KHTML, like Gecko) Chrome/131.0.0.0 Safari/537.36","WebKit","Chrome","131.0.0.0","Windows","10.0","https://app.prolific.com/","en,zh-CN;q=0.9,zh;q=0.8,ja;q=0.7,zh-TW;q=0.6","6500b3922f1493c553f2037f","67949641171f97c04e14fb34","0eyrvjnk9si","","516","[""You sorted incorrectly by using the balance 0 times. <br><br> <img src='G_1.jpg' height='90'><img src='G_2.jpg' height='90'><img src='G_3.jpg' height='90'><img src='G_4.jpg' height='90'><img src='G_5.jpg' height='90'><br><br> Your final order is 4,2,3,5,1<br><br><br>Omgne Sort in this game will allow you to sort correctly by using the balance 8 times. Press Enter to learn it!""]","enter","",""
"","","","","","html-keyboard-response","6","23835","0.0-6.0","27","1","2025-01-25 07:48:20","ce241dad9188715340bebbd1a8cad6cc","73.231.147.146","Mozilla/5.0 (Windows NT 10.0; Win64; x64) AppleWebKit/537.36 (KHTML, like Gecko) Chrome/131.0.0.0 Safari/537.36","WebKit","Chrome","131.0.0.0","Windows","10.0","https://app.prolific.com/","en,zh-CN;q=0.9,zh;q=0.8,ja;q=0.7,zh-TW;q=0.6","6500b3922f1493c553f2037f","67949641171f97c04e14fb34","0eyrvjnk9si","","568","<p>Welcome to the learning phase! <br><br> You will learn by six examples. The following learning trials will not be used to calculate your performance. <br><br> Press Enter to continue.<p/>","enter","",""
"","","","","","html-keyboard-response","7","24646","0.0-7.0","27","1","2025-01-25 07:48:20","ce241dad9188715340bebbd1a8cad6cc","73.231.147.146","Mozilla/5.0 (Windows NT 10.0; Win64; x64) AppleWebKit/537.36 (KHTML, like Gecko) Chrome/131.0.0.0 Safari/537.36","WebKit","Chrome","131.0.0.0","Windows","10.0","https://app.prolific.com/","en,zh-CN;q=0.9,zh;q=0.8,ja;q=0.7,zh-TW;q=0.6","6500b3922f1493c553f2037f","67949641171f97c04e14fb34","0eyrvjnk9si","","809","[""Example 1<br><br>You will watch Omnge Sort in action. Try to identify any patterns in the comparisons made by this method. <br><br>Press Enter to continue.""]","enter","",""
"","","","","","html-keyboard-response","8","25149","0.0-8.0","27","1","2025-01-25 07:48:20","ce241dad9188715340bebbd1a8cad6cc","73.231.147.146","Mozilla/5.0 (Windows NT 10.0; Win64; x64) AppleWebKit/537.36 (KHTML, like Gecko) Chrome/131.0.0.0 Safari/537.36","WebKit","Chrome","131.0.0.0","Windows","10.0","https://app.prolific.com/","en,zh-CN;q=0.9,zh;q=0.8,ja;q=0.7,zh-TW;q=0.6","6500b3922f1493c553f2037f","67949641171f97c04e14fb34","0eyrvjnk9si","","null","<img id='selected' src='G_5.jpg' height='90'> <img src='G_7.jpg' height='90'> <img src='G_1.jpg' height='90'> <img src='G_3.jpg' height='90'> <img src='G_9.jpg' height='90'>","null","Animation0",""
"","","","","","html-keyboard-response","9","25666","0.0-9.0","27","1","2025-01-25 07:48:20","ce241dad9188715340bebbd1a8cad6cc","73.231.147.146","Mozilla/5.0 (Windows NT 10.0; Win64; x64) AppleWebKit/537.36 (KHTML, like Gecko) Chrome/131.0.0.0 Safari/537.36","WebKit","Chrome","131.0.0.0","Windows","10.0","https://app.prolific.com/","en,zh-CN;q=0.9,zh;q=0.8,ja;q=0.7,zh-TW;q=0.6","6500b3922f1493c553f2037f","67949641171f97c04e14fb34","0eyrvjnk9si","","null","<img id='selected' src='G_5.jpg' height='90'> <img id='selected' src='G_7.jpg' height='90'> <img src='G_1.jpg' height='90'> <img src='G_3.jpg' height='90'> <img src='G_9.jpg' height='90'>","null","Animation0",""
"","","","","","html-keyboard-response","10","26180","0.0-10.0","27","1","2025-01-25 07:48:20","ce241dad9188715340bebbd1a8cad6cc","73.231.147.146","Mozilla/5.0 (Windows NT 10.0; Win64; x64) AppleWebKit/537.36 (KHTML, like Gecko) Chrome/131.0.0.0 Safari/537.36","WebKit","Chrome","131.0.0.0","Windows","10.0","https://app.prolific.com/","en,zh-CN;q=0.9,zh;q=0.8,ja;q=0.7,zh-TW;q=0.6","6500b3922f1493c553f2037f","67949641171f97c04e14fb34","0eyrvjnk9si","","null","<img id='swapped' src='G_7.jpg' height='90'> <img id='swapped' src='G_5.jpg' height='90'> <img src='G_1.jpg' height='90'> <img src='G_3.jpg' height='90'> <img src='G_9.jpg' height='90'>","null","Animation0",""
"","","","","","html-keyboard-response","11","26494","0.0-11.0","27","1","2025-01-25 07:48:20","ce241dad9188715340bebbd1a8cad6cc","73.231.147.146","Mozilla/5.0 (Windows NT 10.0; Win64; x64) AppleWebKit/537.36 (KHTML, like Gecko) Chrome/131.0.0.0 Safari/537.36","WebKit","Chrome","131.0.0.0","Windows","10.0","https://app.prolific.com/","en,zh-CN;q=0.9,zh;q=0.8,ja;q=0.7,zh-TW;q=0.6","6500b3922f1493c553f2037f","67949641171f97c04e14fb34","0eyrvjnk9si","","null","<img  src='G_7.jpg' height='90'> <img  src='G_5.jpg' height='90'> <img src='G_1.jpg' height='90'> <img src='G_3.jpg' height='90'> <img src='G_9.jpg' height='90'>","null","Animation0",""
"","","","","","html-keyboard-response","12","27012","0.0-12.0","27","1","2025-01-25 07:48:20","ce241dad9188715340bebbd1a8cad6cc","73.231.147.146","Mozilla/5.0 (Windows NT 10.0; Win64; x64) AppleWebKit/537.36 (KHTML, like Gecko) Chrome/131.0.0.0 Safari/537.36","WebKit","Chrome","131.0.0.0","Windows","10.0","https://app.prolific.com/","en,zh-CN;q=0.9,zh;q=0.8,ja;q=0.7,zh-TW;q=0.6","6500b3922f1493c553f2037f","67949641171f97c04e14fb34","0eyrvjnk9si","","null","<img  src='G_7.jpg' height='90'> <img id='selected'  src='G_5.jpg' height='90'> <img src='G_1.jpg' height='90'> <img src='G_3.jpg' height='90'> <img src='G_9.jpg' height='90'>","null","Animation0",""
"","","","","","html-keyboard-response","13","27527","0.0-13.0","27","1","2025-01-25 07:48:20","ce241dad9188715340bebbd1a8cad6cc","73.231.147.146","Mozilla/5.0 (Windows NT 10.0; Win64; x64) AppleWebKit/537.36 (KHTML, like Gecko) Chrome/131.0.0.0 Safari/537.36","WebKit","Chrome","131.0.0.0","Windows","10.0","https://app.prolific.com/","en,zh-CN;q=0.9,zh;q=0.8,ja;q=0.7,zh-TW;q=0.6","6500b3922f1493c553f2037f","67949641171f97c04e14fb34","0eyrvjnk9si","","null","<img  src='G_7.jpg' height='90'> <img id='selected'  src='G_5.jpg' height='90'> <img id='selected' src='G_1.jpg' height='90'> <img src='G_3.jpg' height='90'> <img src='G_9.jpg' height='90'>","null","Animation0",""
"","","","","","html-keyboard-response","14","28040","0.0-14.0","27","1","2025-01-25 07:48:20","ce241dad9188715340bebbd1a8cad6cc","73.231.147.146","Mozilla/5.0 (Windows NT 10.0; Win64; x64) AppleWebKit/537.36 (KHTML, like Gecko) Chrome/131.0.0.0 Safari/537.36","WebKit","Chrome","131.0.0.0","Windows","10.0","https://app.prolific.com/","en,zh-CN;q=0.9,zh;q=0.8,ja;q=0.7,zh-TW;q=0.6","6500b3922f1493c553f2037f","67949641171f97c04e14fb34","0eyrvjnk9si","","null","<img  src='G_7.jpg' height='90'> <img id='selected'  src='G_5.jpg' height='90'> <img id='selected' src='G_1.jpg' height='90'> <img src='G_3.jpg' height='90'> <img src='G_9.jpg' height='90'>","null","Animation0",""
"","","","","","html-keyboard-response","15","28353","0.0-15.0","27","1","2025-01-25 07:48:20","ce241dad9188715340bebbd1a8cad6cc","73.231.147.146","Mozilla/5.0 (Windows NT 10.0; Win64; x64) AppleWebKit/537.36 (KHTML, like Gecko) Chrome/131.0.0.0 Safari/537.36","WebKit","Chrome","131.0.0.0","Windows","10.0","https://app.prolific.com/","en,zh-CN;q=0.9,zh;q=0.8,ja;q=0.7,zh-TW;q=0.6","6500b3922f1493c553f2037f","67949641171f97c04e14fb34","0eyrvjnk9si","","null","<img  src='G_7.jpg' height='90'> <img   src='G_5.jpg' height='90'> <img  src='G_1.jpg' height='90'> <img src='G_3.jpg' height='90'> <img src='G_9.jpg' height='90'>","null","Animation0",""
"","","","","","html-keyboard-response","16","28866","0.0-16.0","27","1","2025-01-25 07:48:20","ce241dad9188715340bebbd1a8cad6cc","73.231.147.146","Mozilla/5.0 (Windows NT 10.0; Win64; x64) AppleWebKit/537.36 (KHTML, like Gecko) Chrome/131.0.0.0 Safari/537.36","WebKit","Chrome","131.0.0.0","Windows","10.0","https://app.prolific.com/","en,zh-CN;q=0.9,zh;q=0.8,ja;q=0.7,zh-TW;q=0.6","6500b3922f1493c553f2037f","67949641171f97c04e14fb34","0eyrvjnk9si","","null","<img  src='G_7.jpg' height='90'> <img   src='G_5.jpg' height='90'> <img id='selected'  src='G_1.jpg' height='90'> <img src='G_3.jpg' height='90'> <img src='G_9.jpg' height='90'>","null","Animation0",""
"","","","","","html-keyboard-response","17","29378","0.0-17.0","27","1","2025-01-25 07:48:20","ce241dad9188715340bebbd1a8cad6cc","73.231.147.146","Mozilla/5.0 (Windows NT 10.0; Win64; x64) AppleWebKit/537.36 (KHTML, like Gecko) Chrome/131.0.0.0 Safari/537.36","WebKit","Chrome","131.0.0.0","Windows","10.0","https://app.prolific.com/","en,zh-CN;q=0.9,zh;q=0.8,ja;q=0.7,zh-TW;q=0.6","6500b3922f1493c553f2037f","67949641171f97c04e14fb34","0eyrvjnk9si","","null","<img  src='G_7.jpg' height='90'> <img   src='G_5.jpg' height='90'> <img id='selected'  src='G_1.jpg' height='90'> <img id='selected' src='G_3.jpg' height='90'> <img src='G_9.jpg' height='90'>","null","Animation0",""
"","","","","","html-keyboard-response","18","29892","0.0-18.0","27","1","2025-01-25 07:48:20","ce241dad9188715340bebbd1a8cad6cc","73.231.147.146","Mozilla/5.0 (Windows NT 10.0; Win64; x64) AppleWebKit/537.36 (KHTML, like Gecko) Chrome/131.0.0.0 Safari/537.36","WebKit","Chrome","131.0.0.0","Windows","10.0","https://app.prolific.com/","en,zh-CN;q=0.9,zh;q=0.8,ja;q=0.7,zh-TW;q=0.6","6500b3922f1493c553f2037f","67949641171f97c04e14fb34","0eyrvjnk9si","","null","<img  src='G_7.jpg' height='90'> <img   src='G_5.jpg' height='90'> <img id='selected'  src='G_1.jpg' height='90'> <img id='selected' src='G_3.jpg' height='90'> <img src='G_9.jpg' height='90'>","null","Animation0",""
"","","","","","html-keyboard-response","19","30206","0.0-19.0","27","1","2025-01-25 07:48:20","ce241dad9188715340bebbd1a8cad6cc","73.231.147.146","Mozilla/5.0 (Windows NT 10.0; Win64; x64) AppleWebKit/537.36 (KHTML, like Gecko) Chrome/131.0.0.0 Safari/537.36","WebKit","Chrome","131.0.0.0","Windows","10.0","https://app.prolific.com/","en,zh-CN;q=0.9,zh;q=0.8,ja;q=0.7,zh-TW;q=0.6","6500b3922f1493c553f2037f","67949641171f97c04e14fb34","0eyrvjnk9si","","null","<img  src='G_7.jpg' height='90'> <img   src='G_5.jpg' height='90'> <img   src='G_1.jpg' height='90'> <img  src='G_3.jpg' height='90'> <img src='G_9.jpg' height='90'>","null","Animation0",""
"","","","","","html-keyboard-response","20","30723","0.0-20.0","27","1","2025-01-25 07:48:20","ce241dad9188715340bebbd1a8cad6cc","73.231.147.146","Mozilla/5.0 (Windows NT 10.0; Win64; x64) AppleWebKit/537.36 (KHTML, like Gecko) Chrome/131.0.0.0 Safari/537.36","WebKit","Chrome","131.0.0.0","Windows","10.0","https://app.prolific.com/","en,zh-CN;q=0.9,zh;q=0.8,ja;q=0.7,zh-TW;q=0.6","6500b3922f1493c553f2037f","67949641171f97c04e14fb34","0eyrvjnk9si","","null","<img  src='G_7.jpg' height='90'> <img   src='G_5.jpg' height='90'> <img   src='G_1.jpg' height='90'> <img id='selected'  src='G_3.jpg' height='90'> <img src='G_9.jpg' height='90'>","null","Animation0",""
"","","","","","html-keyboard-response","21","31239","0.0-21.0","27","1","2025-01-25 07:48:20","ce241dad9188715340bebbd1a8cad6cc","73.231.147.146","Mozilla/5.0 (Windows NT 10.0; Win64; x64) AppleWebKit/537.36 (KHTML, like Gecko) Chrome/131.0.0.0 Safari/537.36","WebKit","Chrome","131.0.0.0","Windows","10.0","https://app.prolific.com/","en,zh-CN;q=0.9,zh;q=0.8,ja;q=0.7,zh-TW;q=0.6","6500b3922f1493c553f2037f","67949641171f97c04e14fb34","0eyrvjnk9si","","null","<img  src='G_7.jpg' height='90'> <img   src='G_5.jpg' height='90'> <img   src='G_1.jpg' height='90'> <img id='selected'  src='G_3.jpg' height='90'> <img id='selected' src='G_9.jpg' height='90'>","null","Animation0",""
"","","","","","html-keyboard-response","22","31752","0.0-22.0","27","1","2025-01-25 07:48:20","ce241dad9188715340bebbd1a8cad6cc","73.231.147.146","Mozilla/5.0 (Windows NT 10.0; Win64; x64) AppleWebKit/537.36 (KHTML, like Gecko) Chrome/131.0.0.0 Safari/537.36","WebKit","Chrome","131.0.0.0","Windows","10.0","https://app.prolific.com/","en,zh-CN;q=0.9,zh;q=0.8,ja;q=0.7,zh-TW;q=0.6","6500b3922f1493c553f2037f","67949641171f97c04e14fb34","0eyrvjnk9si","","null","<img  src='G_7.jpg' height='90'> <img   src='G_5.jpg' height='90'> <img   src='G_1.jpg' height='90'> <img id='selected'  src='G_3.jpg' height='90'> <img id='selected' src='G_9.jpg' height='90'>","null","Animation0",""
"","","","","","html-keyboard-response","23","32067","0.0-23.0","27","1","2025-01-25 07:48:20","ce241dad9188715340bebbd1a8cad6cc","73.231.147.146","Mozilla/5.0 (Windows NT 10.0; Win64; x64) AppleWebKit/537.36 (KHTML, like Gecko) Chrome/131.0.0.0 Safari/537.36","WebKit","Chrome","131.0.0.0","Windows","10.0","https://app.prolific.com/","en,zh-CN;q=0.9,zh;q=0.8,ja;q=0.7,zh-TW;q=0.6","6500b3922f1493c553f2037f","67949641171f97c04e14fb34","0eyrvjnk9si","","null","<img  src='G_7.jpg' height='90'> <img   src='G_5.jpg' height='90'> <img   src='G_1.jpg' height='90'> <img   src='G_3.jpg' height='90'> <img  src='G_9.jpg' height='90'>","null","Animation0",""
"","","","","","html-keyboard-response","24","34014","0.0-24.0","27","1","2025-01-25 07:48:20","ce241dad9188715340bebbd1a8cad6cc","73.231.147.146","Mozilla/5.0 (Windows NT 10.0; Win64; x64) AppleWebKit/537.36 (KHTML, like Gecko) Chrome/131.0.0.0 Safari/537.36","WebKit","Chrome","131.0.0.0","Windows","10.0","https://app.prolific.com/","en,zh-CN;q=0.9,zh;q=0.8,ja;q=0.7,zh-TW;q=0.6","6500b3922f1493c553f2037f","67949641171f97c04e14fb34","0eyrvjnk9si","","1944","[""Did you notice any patterns? <br><br>Press Enter to watch that example again and follow the steps of Omgne Sort.""]","enter","",""
"","","","","","html-button-response","25","34423","0.0-25.0","27","1","2025-01-25 07:48:20","ce241dad9188715340bebbd1a8cad6cc","73.231.147.146","Mozilla/5.0 (Windows NT 10.0; Win64; x64) AppleWebKit/537.36 (KHTML, like Gecko) Chrome/131.0.0.0 Safari/537.36","WebKit","Chrome","131.0.0.0","Windows","10.0","https://app.prolific.com/","en,zh-CN;q=0.9,zh;q=0.8,ja;q=0.7,zh-TW;q=0.6","6500b3922f1493c553f2037f","67949641171f97c04e14fb34","0eyrvjnk9si","","null","<img id='selected' src='G_5.jpg' height='90'> <img src='G_7.jpg' height='90'> <img src='G_1.jpg' height='90'> <img src='G_3.jpg' height='90'> <img src='G_9.jpg' height='90'>","null","Learning example 0",""
"","","","","","html-button-response","26","34736","0.0-26.0","27","1","2025-01-25 07:48:20","ce241dad9188715340bebbd1a8cad6cc","73.231.147.146","Mozilla/5.0 (Windows NT 10.0; Win64; x64) AppleWebKit/537.36 (KHTML, like Gecko) Chrome/131.0.0.0 Safari/537.36","WebKit","Chrome","131.0.0.0","Windows","10.0","https://app.prolific.com/","en,zh-CN;q=0.9,zh;q=0.8,ja;q=0.7,zh-TW;q=0.6","6500b3922f1493c553f2037f","67949641171f97c04e14fb34","0eyrvjnk9si","","null","<img id='selected' src='G_5.jpg' height='90'> <img id='selected' src='G_7.jpg' height='90'> <img src='G_1.jpg' height='90'> <img src='G_3.jpg' height='90'> <img src='G_9.jpg' height='90'>","null","Learning example 0",""
"","","","","","html-button-response","27","35041","0.0-27.0","27","1","2025-01-25 07:48:20","ce241dad9188715340bebbd1a8cad6cc","73.231.147.146","Mozilla/5.0 (Windows NT 10.0; Win64; x64) AppleWebKit/537.36 (KHTML, like Gecko) Chrome/131.0.0.0 Safari/537.36","WebKit","Chrome","131.0.0.0","Windows","10.0","https://app.prolific.com/","en,zh-CN;q=0.9,zh;q=0.8,ja;q=0.7,zh-TW;q=0.6","6500b3922f1493c553f2037f","67949641171f97c04e14fb34","0eyrvjnk9si","","null","<img id='swapped' src='G_7.jpg' height='90'> <img id='swapped' src='G_5.jpg' height='90'> <img src='G_1.jpg' height='90'> <img src='G_3.jpg' height='90'> <img src='G_9.jpg' height='90'>","null","Learning example 0",""
"","","","","","html-button-response","28","35528","0.0-28.0-0.0-0.0","27","1","2025-01-25 07:48:20","ce241dad9188715340bebbd1a8cad6cc","73.231.147.146","Mozilla/5.0 (Windows NT 10.0; Win64; x64) AppleWebKit/537.36 (KHTML, like Gecko) Chrome/131.0.0.0 Safari/537.36","WebKit","Chrome","131.0.0.0","Windows","10.0","https://app.prolific.com/","en,zh-CN;q=0.9,zh;q=0.8,ja;q=0.7,zh-TW;q=0.6","6500b3922f1493c553f2037f","67949641171f97c04e14fb34","0eyrvjnk9si","","482","<img id='swapped' src='G_7.jpg' height='90'> <img id='swapped' src='G_5.jpg' height='90'> <img src='G_1.jpg' height='90'> <img src='G_3.jpg' height='90'> <img src='G_9.jpg' height='90'>","0","Learning example 0",""
"","","","","","html-button-response","29","35966","0.0-28.1-0.1-0.1","27","1","2025-01-25 07:48:20","ce241dad9188715340bebbd1a8cad6cc","73.231.147.146","Mozilla/5.0 (Windows NT 10.0; Win64; x64) AppleWebKit/537.36 (KHTML, like Gecko) Chrome/131.0.0.0 Safari/537.36","WebKit","Chrome","131.0.0.0","Windows","10.0","https://app.prolific.com/","en,zh-CN;q=0.9,zh;q=0.8,ja;q=0.7,zh-TW;q=0.6","6500b3922f1493c553f2037f","67949641171f97c04e14fb34","0eyrvjnk9si","","436","<img id='swapped' src='G_7.jpg' height='90'> <img id='swapped' src='G_5.jpg' height='90'> <img src='G_1.jpg' height='90'> <img src='G_3.jpg' height='90'> <img src='G_9.jpg' height='90'>","1","Learning example 0",""
"","","","","","html-button-response","30","36168","0.0-29.0","27","1","2025-01-25 07:48:20","ce241dad9188715340bebbd1a8cad6cc","73.231.147.146","Mozilla/5.0 (Windows NT 10.0; Win64; x64) AppleWebKit/537.36 (KHTML, like Gecko) Chrome/131.0.0.0 Safari/537.36","WebKit","Chrome","131.0.0.0","Windows","10.0","https://app.prolific.com/","en,zh-CN;q=0.9,zh;q=0.8,ja;q=0.7,zh-TW;q=0.6","6500b3922f1493c553f2037f","67949641171f97c04e14fb34","0eyrvjnk9si","","null","<img  src='G_7.jpg' height='90'> <img  src='G_5.jpg' height='90'> <img src='G_1.jpg' height='90'> <img src='G_3.jpg' height='90'> <img src='G_9.jpg' height='90'>","null","Learning example 0",""
"","","","","","html-button-response","31","36576","0.0-30.0","27","1","2025-01-25 07:48:20","ce241dad9188715340bebbd1a8cad6cc","73.231.147.146","Mozilla/5.0 (Windows NT 10.0; Win64; x64) AppleWebKit/537.36 (KHTML, like Gecko) Chrome/131.0.0.0 Safari/537.36","WebKit","Chrome","131.0.0.0","Windows","10.0","https://app.prolific.com/","en,zh-CN;q=0.9,zh;q=0.8,ja;q=0.7,zh-TW;q=0.6","6500b3922f1493c553f2037f","67949641171f97c04e14fb34","0eyrvjnk9si","","null","<img  src='G_7.jpg' height='90'> <img id='selected'  src='G_5.jpg' height='90'> <img src='G_1.jpg' height='90'> <img src='G_3.jpg' height='90'> <img src='G_9.jpg' height='90'>","null","Learning example 0",""
"","","","","","html-button-response","32","36889","0.0-31.0","27","1","2025-01-25 07:48:20","ce241dad9188715340bebbd1a8cad6cc","73.231.147.146","Mozilla/5.0 (Windows NT 10.0; Win64; x64) AppleWebKit/537.36 (KHTML, like Gecko) Chrome/131.0.0.0 Safari/537.36","WebKit","Chrome","131.0.0.0","Windows","10.0","https://app.prolific.com/","en,zh-CN;q=0.9,zh;q=0.8,ja;q=0.7,zh-TW;q=0.6","6500b3922f1493c553f2037f","67949641171f97c04e14fb34","0eyrvjnk9si","","null","<img  src='G_7.jpg' height='90'> <img id='selected'  src='G_5.jpg' height='90'> <img id='selected' src='G_1.jpg' height='90'> <img src='G_3.jpg' height='90'> <img src='G_9.jpg' height='90'>","null","Learning example 0",""
"","","","","","html-button-response","33","37200","0.0-32.0","27","1","2025-01-25 07:48:20","ce241dad9188715340bebbd1a8cad6cc","73.231.147.146","Mozilla/5.0 (Windows NT 10.0; Win64; x64) AppleWebKit/537.36 (KHTML, like Gecko) Chrome/131.0.0.0 Safari/537.36","WebKit","Chrome","131.0.0.0","Windows","10.0","https://app.prolific.com/","en,zh-CN;q=0.9,zh;q=0.8,ja;q=0.7,zh-TW;q=0.6","6500b3922f1493c553f2037f","67949641171f97c04e14fb34","0eyrvjnk9si","","null","<img  src='G_7.jpg' height='90'> <img id='selected'  src='G_5.jpg' height='90'> <img id='selected' src='G_1.jpg' height='90'> <img src='G_3.jpg' height='90'> <img src='G_9.jpg' height='90'>","null","Learning example 0",""
"","","","","","html-button-response","34","37830","0.0-33.0-0.0-0.0","27","1","2025-01-25 07:48:20","ce241dad9188715340bebbd1a8cad6cc","73.231.147.146","Mozilla/5.0 (Windows NT 10.0; Win64; x64) AppleWebKit/537.36 (KHTML, like Gecko) Chrome/131.0.0.0 Safari/537.36","WebKit","Chrome","131.0.0.0","Windows","10.0","https://app.prolific.com/","en,zh-CN;q=0.9,zh;q=0.8,ja;q=0.7,zh-TW;q=0.6","6500b3922f1493c553f2037f","67949641171f97c04e14fb34","0eyrvjnk9si","","628","<img  src='G_7.jpg' height='90'> <img id='selected'  src='G_5.jpg' height='90'> <img id='selected' src='G_1.jpg' height='90'> <img src='G_3.jpg' height='90'> <img src='G_9.jpg' height='90'>","1","Learning example 0",""
"","","","","","html-button-response","35","38214","0.0-33.1-0.1-0.1","27","1","2025-01-25 07:48:20","ce241dad9188715340bebbd1a8cad6cc","73.231.147.146","Mozilla/5.0 (Windows NT 10.0; Win64; x64) AppleWebKit/537.36 (KHTML, like Gecko) Chrome/131.0.0.0 Safari/537.36","WebKit","Chrome","131.0.0.0","Windows","10.0","https://app.prolific.com/","en,zh-CN;q=0.9,zh;q=0.8,ja;q=0.7,zh-TW;q=0.6","6500b3922f1493c553f2037f","67949641171f97c04e14fb34","0eyrvjnk9si","","383","<img  src='G_7.jpg' height='90'> <img id='selected'  src='G_5.jpg' height='90'> <img id='selected' src='G_1.jpg' height='90'> <img src='G_3.jpg' height='90'> <img src='G_9.jpg' height='90'>","2","Learning example 0",""
"","","","","","html-button-response","36","38430","0.0-34.0","27","1","2025-01-25 07:48:20","ce241dad9188715340bebbd1a8cad6cc","73.231.147.146","Mozilla/5.0 (Windows NT 10.0; Win64; x64) AppleWebKit/537.36 (KHTML, like Gecko) Chrome/131.0.0.0 Safari/537.36","WebKit","Chrome","131.0.0.0","Windows","10.0","https://app.prolific.com/","en,zh-CN;q=0.9,zh;q=0.8,ja;q=0.7,zh-TW;q=0.6","6500b3922f1493c553f2037f","67949641171f97c04e14fb34","0eyrvjnk9si","","null","<img  src='G_7.jpg' height='90'> <img   src='G_5.jpg' height='90'> <img  src='G_1.jpg' height='90'> <img src='G_3.jpg' height='90'> <img src='G_9.jpg' height='90'>","null","Learning example 0",""
"","","","","","html-button-response","37","38836","0.0-35.0","27","1","2025-01-25 07:48:20","ce241dad9188715340bebbd1a8cad6cc","73.231.147.146","Mozilla/5.0 (Windows NT 10.0; Win64; x64) AppleWebKit/537.36 (KHTML, like Gecko) Chrome/131.0.0.0 Safari/537.36","WebKit","Chrome","131.0.0.0","Windows","10.0","https://app.prolific.com/","en,zh-CN;q=0.9,zh;q=0.8,ja;q=0.7,zh-TW;q=0.6","6500b3922f1493c553f2037f","67949641171f97c04e14fb34","0eyrvjnk9si","","null","<img  src='G_7.jpg' height='90'> <img   src='G_5.jpg' height='90'> <img id='selected'  src='G_1.jpg' height='90'> <img src='G_3.jpg' height='90'> <img src='G_9.jpg' height='90'>","null","Learning example 0",""
"","","","","","html-button-response","38","39148","0.0-36.0","27","1","2025-01-25 07:48:20","ce241dad9188715340bebbd1a8cad6cc","73.231.147.146","Mozilla/5.0 (Windows NT 10.0; Win64; x64) AppleWebKit/537.36 (KHTML, like Gecko) Chrome/131.0.0.0 Safari/537.36","WebKit","Chrome","131.0.0.0","Windows","10.0","https://app.prolific.com/","en,zh-CN;q=0.9,zh;q=0.8,ja;q=0.7,zh-TW;q=0.6","6500b3922f1493c553f2037f","67949641171f97c04e14fb34","0eyrvjnk9si","","null","<img  src='G_7.jpg' height='90'> <img   src='G_5.jpg' height='90'> <img id='selected'  src='G_1.jpg' height='90'> <img id='selected' src='G_3.jpg' height='90'> <img src='G_9.jpg' height='90'>","null","Learning example 0",""
"","","","","","html-button-response","39","39460","0.0-37.0","27","1","2025-01-25 07:48:20","ce241dad9188715340bebbd1a8cad6cc","73.231.147.146","Mozilla/5.0 (Windows NT 10.0; Win64; x64) AppleWebKit/537.36 (KHTML, like Gecko) Chrome/131.0.0.0 Safari/537.36","WebKit","Chrome","131.0.0.0","Windows","10.0","https://app.prolific.com/","en,zh-CN;q=0.9,zh;q=0.8,ja;q=0.7,zh-TW;q=0.6","6500b3922f1493c553f2037f","67949641171f97c04e14fb34","0eyrvjnk9si","","null","<img  src='G_7.jpg' height='90'> <img   src='G_5.jpg' height='90'> <img id='selected'  src='G_1.jpg' height='90'> <img id='selected' src='G_3.jpg' height='90'> <img src='G_9.jpg' height='90'>","null","Learning example 0",""
"","","","","","html-button-response","40","39616","0.0-38.0-0.0-0.0","27","1","2025-01-25 07:48:20","ce241dad9188715340bebbd1a8cad6cc","73.231.147.146","Mozilla/5.0 (Windows NT 10.0; Win64; x64) AppleWebKit/537.36 (KHTML, like Gecko) Chrome/131.0.0.0 Safari/537.36","WebKit","Chrome","131.0.0.0","Windows","10.0","https://app.prolific.com/","en,zh-CN;q=0.9,zh;q=0.8,ja;q=0.7,zh-TW;q=0.6","6500b3922f1493c553f2037f","67949641171f97c04e14fb34","0eyrvjnk9si","","150","<img  src='G_7.jpg' height='90'> <img   src='G_5.jpg' height='90'> <img id='selected'  src='G_1.jpg' height='90'> <img id='selected' src='G_3.jpg' height='90'> <img src='G_9.jpg' height='90'>","2","Learning example 0",""
"","","","","","html-button-response","41","40040","0.0-38.1-0.1-0.1","27","1","2025-01-25 07:48:20","ce241dad9188715340bebbd1a8cad6cc","73.231.147.146","Mozilla/5.0 (Windows NT 10.0; Win64; x64) AppleWebKit/537.36 (KHTML, like Gecko) Chrome/131.0.0.0 Safari/537.36","WebKit","Chrome","131.0.0.0","Windows","10.0","https://app.prolific.com/","en,zh-CN;q=0.9,zh;q=0.8,ja;q=0.7,zh-TW;q=0.6","6500b3922f1493c553f2037f","67949641171f97c04e14fb34","0eyrvjnk9si","","422","<img  src='G_7.jpg' height='90'> <img   src='G_5.jpg' height='90'> <img id='selected'  src='G_1.jpg' height='90'> <img id='selected' src='G_3.jpg' height='90'> <img src='G_9.jpg' height='90'>","3","Learning example 0",""
"","","","","","html-button-response","42","40243","0.0-39.0","27","1","2025-01-25 07:48:20","ce241dad9188715340bebbd1a8cad6cc","73.231.147.146","Mozilla/5.0 (Windows NT 10.0; Win64; x64) AppleWebKit/537.36 (KHTML, like Gecko) Chrome/131.0.0.0 Safari/537.36","WebKit","Chrome","131.0.0.0","Windows","10.0","https://app.prolific.com/","en,zh-CN;q=0.9,zh;q=0.8,ja;q=0.7,zh-TW;q=0.6","6500b3922f1493c553f2037f","67949641171f97c04e14fb34","0eyrvjnk9si","","null","<img  src='G_7.jpg' height='90'> <img   src='G_5.jpg' height='90'> <img   src='G_1.jpg' height='90'> <img  src='G_3.jpg' height='90'> <img src='G_9.jpg' height='90'>","null","Learning example 0",""
"","","","","","html-button-response","43","40653","0.0-40.0","27","1","2025-01-25 07:48:20","ce241dad9188715340bebbd1a8cad6cc","73.231.147.146","Mozilla/5.0 (Windows NT 10.0; Win64; x64) AppleWebKit/537.36 (KHTML, like Gecko) Chrome/131.0.0.0 Safari/537.36","WebKit","Chrome","131.0.0.0","Windows","10.0","https://app.prolific.com/","en,zh-CN;q=0.9,zh;q=0.8,ja;q=0.7,zh-TW;q=0.6","6500b3922f1493c553f2037f","67949641171f97c04e14fb34","0eyrvjnk9si","","null","<img  src='G_7.jpg' height='90'> <img   src='G_5.jpg' height='90'> <img   src='G_1.jpg' height='90'> <img id='selected'  src='G_3.jpg' height='90'> <img src='G_9.jpg' height='90'>","null","Learning example 0",""
"","","","","","html-button-response","44","40964","0.0-41.0","27","1","2025-01-25 07:48:20","ce241dad9188715340bebbd1a8cad6cc","73.231.147.146","Mozilla/5.0 (Windows NT 10.0; Win64; x64) AppleWebKit/537.36 (KHTML, like Gecko) Chrome/131.0.0.0 Safari/537.36","WebKit","Chrome","131.0.0.0","Windows","10.0","https://app.prolific.com/","en,zh-CN;q=0.9,zh;q=0.8,ja;q=0.7,zh-TW;q=0.6","6500b3922f1493c553f2037f","67949641171f97c04e14fb34","0eyrvjnk9si","","null","<img  src='G_7.jpg' height='90'> <img   src='G_5.jpg' height='90'> <img   src='G_1.jpg' height='90'> <img id='selected'  src='G_3.jpg' height='90'> <img id='selected' src='G_9.jpg' height='90'>","null","Learning example 0",""
"","","","","","html-button-response","45","41276","0.0-42.0","27","1","2025-01-25 07:48:20","ce241dad9188715340bebbd1a8cad6cc","73.231.147.146","Mozilla/5.0 (Windows NT 10.0; Win64; x64) AppleWebKit/537.36 (KHTML, like Gecko) Chrome/131.0.0.0 Safari/537.36","WebKit","Chrome","131.0.0.0","Windows","10.0","https://app.prolific.com/","en,zh-CN;q=0.9,zh;q=0.8,ja;q=0.7,zh-TW;q=0.6","6500b3922f1493c553f2037f","67949641171f97c04e14fb34","0eyrvjnk9si","","null","<img  src='G_7.jpg' height='90'> <img   src='G_5.jpg' height='90'> <img   src='G_1.jpg' height='90'> <img id='selected'  src='G_3.jpg' height='90'> <img id='selected' src='G_9.jpg' height='90'>","null","Learning example 0",""
"","","","","","html-button-response","46","41426","0.0-43.0-0.0-0.0","27","1","2025-01-25 07:48:20","ce241dad9188715340bebbd1a8cad6cc","73.231.147.146","Mozilla/5.0 (Windows NT 10.0; Win64; x64) AppleWebKit/537.36 (KHTML, like Gecko) Chrome/131.0.0.0 Safari/537.36","WebKit","Chrome","131.0.0.0","Windows","10.0","https://app.prolific.com/","en,zh-CN;q=0.9,zh;q=0.8,ja;q=0.7,zh-TW;q=0.6","6500b3922f1493c553f2037f","67949641171f97c04e14fb34","0eyrvjnk9si","","145","<img  src='G_7.jpg' height='90'> <img   src='G_5.jpg' height='90'> <img   src='G_1.jpg' height='90'> <img id='selected'  src='G_3.jpg' height='90'> <img id='selected' src='G_9.jpg' height='90'>","3","Learning example 0",""
"","","","","","html-button-response","47","41834","0.0-43.1-0.1-0.1","27","1","2025-01-25 07:48:20","ce241dad9188715340bebbd1a8cad6cc","73.231.147.146","Mozilla/5.0 (Windows NT 10.0; Win64; x64) AppleWebKit/537.36 (KHTML, like Gecko) Chrome/131.0.0.0 Safari/537.36","WebKit","Chrome","131.0.0.0","Windows","10.0","https://app.prolific.com/","en,zh-CN;q=0.9,zh;q=0.8,ja;q=0.7,zh-TW;q=0.6","6500b3922f1493c553f2037f","67949641171f97c04e14fb34","0eyrvjnk9si","","406","<img  src='G_7.jpg' height='90'> <img   src='G_5.jpg' height='90'> <img   src='G_1.jpg' height='90'> <img id='selected'  src='G_3.jpg' height='90'> <img id='selected' src='G_9.jpg' height='90'>","4","Learning example 0",""
"","","","","","html-button-response","48","42036","0.0-44.0","27","1","2025-01-25 07:48:20","ce241dad9188715340bebbd1a8cad6cc","73.231.147.146","Mozilla/5.0 (Windows NT 10.0; Win64; x64) AppleWebKit/537.36 (KHTML, like Gecko) Chrome/131.0.0.0 Safari/537.36","WebKit","Chrome","131.0.0.0","Windows","10.0","https://app.prolific.com/","en,zh-CN;q=0.9,zh;q=0.8,ja;q=0.7,zh-TW;q=0.6","6500b3922f1493c553f2037f","67949641171f97c04e14fb34","0eyrvjnk9si","","null","<img  src='G_7.jpg' height='90'> <img   src='G_5.jpg' height='90'> <img   src='G_1.jpg' height='90'> <img   src='G_3.jpg' height='90'> <img  src='G_9.jpg' height='90'>","null","Learning example 0",""
"","","","","","html-keyboard-response","49","131164","0.0-45.0","27","1","2025-01-25 07:48:20","ce241dad9188715340bebbd1a8cad6cc","73.231.147.146","Mozilla/5.0 (Windows NT 10.0; Win64; x64) AppleWebKit/537.36 (KHTML, like Gecko) Chrome/131.0.0.0 Safari/537.36","WebKit","Chrome","131.0.0.0","Windows","10.0","https://app.prolific.com/","en,zh-CN;q=0.9,zh;q=0.8,ja;q=0.7,zh-TW;q=0.6","6500b3922f1493c553f2037f","67949641171f97c04e14fb34","0eyrvjnk9si","","89125","[""Final order was 1,2,3,4,5. The initial order was 2,1,3,4,5.<br>It took 1 swaps to sort it correctly with Omgne Sort. <br><br>Press Enter to continue.""]","enter","",""
"","","","","","html-keyboard-response","50","135585","0.0-46.0","27","1","2025-01-25 07:48:20","ce241dad9188715340bebbd1a8cad6cc","73.231.147.146","Mozilla/5.0 (Windows NT 10.0; Win64; x64) AppleWebKit/537.36 (KHTML, like Gecko) Chrome/131.0.0.0 Safari/537.36","WebKit","Chrome","131.0.0.0","Windows","10.0","https://app.prolific.com/","en,zh-CN;q=0.9,zh;q=0.8,ja;q=0.7,zh-TW;q=0.6","6500b3922f1493c553f2037f","67949641171f97c04e14fb34","0eyrvjnk9si","","4415","[""Example 2<br><br>You will watch Omnge Sort in action. Try to identify any patterns in the comparisons made by this method. <br><br>Press Enter to continue.""]","enter","",""
"","","","","","html-keyboard-response","51","136104","0.0-47.0","27","1","2025-01-25 07:48:20","ce241dad9188715340bebbd1a8cad6cc","73.231.147.146","Mozilla/5.0 (Windows NT 10.0; Win64; x64) AppleWebKit/537.36 (KHTML, like Gecko) Chrome/131.0.0.0 Safari/537.36","WebKit","Chrome","131.0.0.0","Windows","10.0","https://app.prolific.com/","en,zh-CN;q=0.9,zh;q=0.8,ja;q=0.7,zh-TW;q=0.6","6500b3922f1493c553f2037f","67949641171f97c04e14fb34","0eyrvjnk9si","","null","<img id='selected' src='G_1.jpg' height='90'> <img src='G_3.jpg' height='90'> <img src='G_4.jpg' height='90'> <img src='G_5.jpg' height='90'> <img src='G_6.jpg' height='90'> <img src='G_7.jpg' height='90'> <img src='G_8.jpg' height='90'> <img src='G_2.jpg' height='90'>","null","Animation1",""
"","","","","","html-keyboard-response","52","136620","0.0-48.0","27","1","2025-01-25 07:48:20","ce241dad9188715340bebbd1a8cad6cc","73.231.147.146","Mozilla/5.0 (Windows NT 10.0; Win64; x64) AppleWebKit/537.36 (KHTML, like Gecko) Chrome/131.0.0.0 Safari/537.36","WebKit","Chrome","131.0.0.0","Windows","10.0","https://app.prolific.com/","en,zh-CN;q=0.9,zh;q=0.8,ja;q=0.7,zh-TW;q=0.6","6500b3922f1493c553f2037f","67949641171f97c04e14fb34","0eyrvjnk9si","","null","<img id='selected' src='G_1.jpg' height='90'> <img id='selected' src='G_3.jpg' height='90'> <img src='G_4.jpg' height='90'> <img src='G_5.jpg' height='90'> <img src='G_6.jpg' height='90'> <img src='G_7.jpg' height='90'> <img src='G_8.jpg' height='90'> <img src='G_2.jpg' height='90'>","null","Animation1",""
"","","","","","html-keyboard-response","53","137135","0.0-49.0","27","1","2025-01-25 07:48:20","ce241dad9188715340bebbd1a8cad6cc","73.231.147.146","Mozilla/5.0 (Windows NT 10.0; Win64; x64) AppleWebKit/537.36 (KHTML, like Gecko) Chrome/131.0.0.0 Safari/537.36","WebKit","Chrome","131.0.0.0","Windows","10.0","https://app.prolific.com/","en,zh-CN;q=0.9,zh;q=0.8,ja;q=0.7,zh-TW;q=0.6","6500b3922f1493c553f2037f","67949641171f97c04e14fb34","0eyrvjnk9si","","null","<img id='selected' src='G_1.jpg' height='90'> <img id='selected' src='G_3.jpg' height='90'> <img src='G_4.jpg' height='90'> <img src='G_5.jpg' height='90'> <img src='G_6.jpg' height='90'> <img src='G_7.jpg' height='90'> <img src='G_8.jpg' height='90'> <img src='G_2.jpg' height='90'>","null","Animation1",""
"","","","","","html-keyboard-response","54","137447","0.0-50.0","27","1","2025-01-25 07:48:20","ce241dad9188715340bebbd1a8cad6cc","73.231.147.146","Mozilla/5.0 (Windows NT 10.0; Win64; x64) AppleWebKit/537.36 (KHTML, like Gecko) Chrome/131.0.0.0 Safari/537.36","WebKit","Chrome","131.0.0.0","Windows","10.0","https://app.prolific.com/","en,zh-CN;q=0.9,zh;q=0.8,ja;q=0.7,zh-TW;q=0.6","6500b3922f1493c553f2037f","67949641171f97c04e14fb34","0eyrvjnk9si","","null","<img  src='G_1.jpg' height='90'> <img  src='G_3.jpg' height='90'> <img src='G_4.jpg' height='90'> <img src='G_5.jpg' height='90'> <img src='G_6.jpg' height='90'> <img src='G_7.jpg' height='90'> <img src='G_8.jpg' height='90'> <img src='G_2.jpg' height='90'>","null","Animation1",""
"","","","","","html-keyboard-response","55","137961","0.0-51.0","27","1","2025-01-25 07:48:20","ce241dad9188715340bebbd1a8cad6cc","73.231.147.146","Mozilla/5.0 (Windows NT 10.0; Win64; x64) AppleWebKit/537.36 (KHTML, like Gecko) Chrome/131.0.0.0 Safari/537.36","WebKit","Chrome","131.0.0.0","Windows","10.0","https://app.prolific.com/","en,zh-CN;q=0.9,zh;q=0.8,ja;q=0.7,zh-TW;q=0.6","6500b3922f1493c553f2037f","67949641171f97c04e14fb34","0eyrvjnk9si","","null","<img  src='G_1.jpg' height='90'> <img id='selected'  src='G_3.jpg' height='90'> <img src='G_4.jpg' height='90'> <img src='G_5.jpg' height='90'> <img src='G_6.jpg' height='90'> <img src='G_7.jpg' height='90'> <img src='G_8.jpg' height='90'> <img src='G_2.jpg' height='90'>","null","Animation1",""
"","","","","","html-keyboard-response","56","138476","0.0-52.0","27","1","2025-01-25 07:48:20","ce241dad9188715340bebbd1a8cad6cc","73.231.147.146","Mozilla/5.0 (Windows NT 10.0; Win64; x64) AppleWebKit/537.36 (KHTML, like Gecko) Chrome/131.0.0.0 Safari/537.36","WebKit","Chrome","131.0.0.0","Windows","10.0","https://app.prolific.com/","en,zh-CN;q=0.9,zh;q=0.8,ja;q=0.7,zh-TW;q=0.6","6500b3922f1493c553f2037f","67949641171f97c04e14fb34","0eyrvjnk9si","","null","<img  src='G_1.jpg' height='90'> <img id='selected'  src='G_3.jpg' height='90'> <img id='selected' src='G_4.jpg' height='90'> <img src='G_5.jpg' height='90'> <img src='G_6.jpg' height='90'> <img src='G_7.jpg' height='90'> <img src='G_8.jpg' height='90'> <img src='G_2.jpg' height='90'>","null","Animation1",""
"","","","","","html-keyboard-response","57","138991","0.0-53.0","27","1","2025-01-25 07:48:20","ce241dad9188715340bebbd1a8cad6cc","73.231.147.146","Mozilla/5.0 (Windows NT 10.0; Win64; x64) AppleWebKit/537.36 (KHTML, like Gecko) Chrome/131.0.0.0 Safari/537.36","WebKit","Chrome","131.0.0.0","Windows","10.0","https://app.prolific.com/","en,zh-CN;q=0.9,zh;q=0.8,ja;q=0.7,zh-TW;q=0.6","6500b3922f1493c553f2037f","67949641171f97c04e14fb34","0eyrvjnk9si","","null","<img  src='G_1.jpg' height='90'> <img id='swapped' src='G_4.jpg' height='90'> <img id='swapped'  src='G_3.jpg' height='90'> <img src='G_5.jpg' height='90'> <img src='G_6.jpg' height='90'> <img src='G_7.jpg' height='90'> <img src='G_8.jpg' height='90'> <img src='G_2.jpg' height='90'>","null","Animation1",""
"","","","","","html-keyboard-response","58","139304","0.0-54.0","27","1","2025-01-25 07:48:20","ce241dad9188715340bebbd1a8cad6cc","73.231.147.146","Mozilla/5.0 (Windows NT 10.0; Win64; x64) AppleWebKit/537.36 (KHTML, like Gecko) Chrome/131.0.0.0 Safari/537.36","WebKit","Chrome","131.0.0.0","Windows","10.0","https://app.prolific.com/","en,zh-CN;q=0.9,zh;q=0.8,ja;q=0.7,zh-TW;q=0.6","6500b3922f1493c553f2037f","67949641171f97c04e14fb34","0eyrvjnk9si","","null","<img  src='G_1.jpg' height='90'> <img  src='G_4.jpg' height='90'> <img   src='G_3.jpg' height='90'> <img src='G_5.jpg' height='90'> <img src='G_6.jpg' height='90'> <img src='G_7.jpg' height='90'> <img src='G_8.jpg' height='90'> <img src='G_2.jpg' height='90'>","null","Animation1",""
"","","","","","html-keyboard-response","59","139819","0.0-55.0","27","1","2025-01-25 07:48:20","ce241dad9188715340bebbd1a8cad6cc","73.231.147.146","Mozilla/5.0 (Windows NT 10.0; Win64; x64) AppleWebKit/537.36 (KHTML, like Gecko) Chrome/131.0.0.0 Safari/537.36","WebKit","Chrome","131.0.0.0","Windows","10.0","https://app.prolific.com/","en,zh-CN;q=0.9,zh;q=0.8,ja;q=0.7,zh-TW;q=0.6","6500b3922f1493c553f2037f","67949641171f97c04e14fb34","0eyrvjnk9si","","null","<img id='selected'  src='G_1.jpg' height='90'> <img  src='G_4.jpg' height='90'> <img   src='G_3.jpg' height='90'> <img src='G_5.jpg' height='90'> <img src='G_6.jpg' height='90'> <img src='G_7.jpg' height='90'> <img src='G_8.jpg' height='90'> <img src='G_2.jpg' height='90'>","null","Animation1",""
"","","","","","html-keyboard-response","60","140332","0.0-56.0","27","1","2025-01-25 07:48:20","ce241dad9188715340bebbd1a8cad6cc","73.231.147.146","Mozilla/5.0 (Windows NT 10.0; Win64; x64) AppleWebKit/537.36 (KHTML, like Gecko) Chrome/131.0.0.0 Safari/537.36","WebKit","Chrome","131.0.0.0","Windows","10.0","https://app.prolific.com/","en,zh-CN;q=0.9,zh;q=0.8,ja;q=0.7,zh-TW;q=0.6","6500b3922f1493c553f2037f","67949641171f97c04e14fb34","0eyrvjnk9si","","null","<img id='selected'  src='G_1.jpg' height='90'> <img id='selected'  src='G_4.jpg' height='90'> <img   src='G_3.jpg' height='90'> <img src='G_5.jpg' height='90'> <img src='G_6.jpg' height='90'> <img src='G_7.jpg' height='90'> <img src='G_8.jpg' height='90'> <img src='G_2.jpg' height='90'>","null","Animation1",""
"","","","","","html-keyboard-response","61","140846","0.0-57.0","27","1","2025-01-25 07:48:20","ce241dad9188715340bebbd1a8cad6cc","73.231.147.146","Mozilla/5.0 (Windows NT 10.0; Win64; x64) AppleWebKit/537.36 (KHTML, like Gecko) Chrome/131.0.0.0 Safari/537.36","WebKit","Chrome","131.0.0.0","Windows","10.0","https://app.prolific.com/","en,zh-CN;q=0.9,zh;q=0.8,ja;q=0.7,zh-TW;q=0.6","6500b3922f1493c553f2037f","67949641171f97c04e14fb34","0eyrvjnk9si","","null","<img id='swapped'  src='G_4.jpg' height='90'> <img id='swapped'  src='G_1.jpg' height='90'> <img   src='G_3.jpg' height='90'> <img src='G_5.jpg' height='90'> <img src='G_6.jpg' height='90'> <img src='G_7.jpg' height='90'> <img src='G_8.jpg' height='90'> <img src='G_2.jpg' height='90'>","null","Animation1",""
"","","","","","html-keyboard-response","62","141160","0.0-58.0","27","1","2025-01-25 07:48:20","ce241dad9188715340bebbd1a8cad6cc","73.231.147.146","Mozilla/5.0 (Windows NT 10.0; Win64; x64) AppleWebKit/537.36 (KHTML, like Gecko) Chrome/131.0.0.0 Safari/537.36","WebKit","Chrome","131.0.0.0","Windows","10.0","https://app.prolific.com/","en,zh-CN;q=0.9,zh;q=0.8,ja;q=0.7,zh-TW;q=0.6","6500b3922f1493c553f2037f","67949641171f97c04e14fb34","0eyrvjnk9si","","null","<img   src='G_4.jpg' height='90'> <img   src='G_1.jpg' height='90'> <img   src='G_3.jpg' height='90'> <img src='G_5.jpg' height='90'> <img src='G_6.jpg' height='90'> <img src='G_7.jpg' height='90'> <img src='G_8.jpg' height='90'> <img src='G_2.jpg' height='90'>","null","Animation1",""
"","","","","","html-keyboard-response","63","141674","0.0-59.0","27","1","2025-01-25 07:48:20","ce241dad9188715340bebbd1a8cad6cc","73.231.147.146","Mozilla/5.0 (Windows NT 10.0; Win64; x64) AppleWebKit/537.36 (KHTML, like Gecko) Chrome/131.0.0.0 Safari/537.36","WebKit","Chrome","131.0.0.0","Windows","10.0","https://app.prolific.com/","en,zh-CN;q=0.9,zh;q=0.8,ja;q=0.7,zh-TW;q=0.6","6500b3922f1493c553f2037f","67949641171f97c04e14fb34","0eyrvjnk9si","","null","<img   src='G_4.jpg' height='90'> <img   src='G_1.jpg' height='90'> <img id='selected'   src='G_3.jpg' height='90'> <img src='G_5.jpg' height='90'> <img src='G_6.jpg' height='90'> <img src='G_7.jpg' height='90'> <img src='G_8.jpg' height='90'> <img src='G_2.jpg' height='90'>","null","Animation1",""
"","","","","","html-keyboard-response","64","142190","0.0-60.0","27","1","2025-01-25 07:48:20","ce241dad9188715340bebbd1a8cad6cc","73.231.147.146","Mozilla/5.0 (Windows NT 10.0; Win64; x64) AppleWebKit/537.36 (KHTML, like Gecko) Chrome/131.0.0.0 Safari/537.36","WebKit","Chrome","131.0.0.0","Windows","10.0","https://app.prolific.com/","en,zh-CN;q=0.9,zh;q=0.8,ja;q=0.7,zh-TW;q=0.6","6500b3922f1493c553f2037f","67949641171f97c04e14fb34","0eyrvjnk9si","","null","<img   src='G_4.jpg' height='90'> <img   src='G_1.jpg' height='90'> <img id='selected'   src='G_3.jpg' height='90'> <img id='selected' src='G_5.jpg' height='90'> <img src='G_6.jpg' height='90'> <img src='G_7.jpg' height='90'> <img src='G_8.jpg' height='90'> <img src='G_2.jpg' height='90'>","null","Animation1",""
"","","","","","html-keyboard-response","65","142704","0.0-61.0","27","1","2025-01-25 07:48:20","ce241dad9188715340bebbd1a8cad6cc","73.231.147.146","Mozilla/5.0 (Windows NT 10.0; Win64; x64) AppleWebKit/537.36 (KHTML, like Gecko) Chrome/131.0.0.0 Safari/537.36","WebKit","Chrome","131.0.0.0","Windows","10.0","https://app.prolific.com/","en,zh-CN;q=0.9,zh;q=0.8,ja;q=0.7,zh-TW;q=0.6","6500b3922f1493c553f2037f","67949641171f97c04e14fb34","0eyrvjnk9si","","null","<img   src='G_4.jpg' height='90'> <img   src='G_1.jpg' height='90'> <img id='swapped' src='G_5.jpg' height='90'> <img id='swapped'   src='G_3.jpg' height='90'> <img src='G_6.jpg' height='90'> <img src='G_7.jpg' height='90'> <img src='G_8.jpg' height='90'> <img src='G_2.jpg' height='90'>","null","Animation1",""
"","","","","","html-keyboard-response","66","143016","0.0-62.0","27","1","2025-01-25 07:48:20","ce241dad9188715340bebbd1a8cad6cc","73.231.147.146","Mozilla/5.0 (Windows NT 10.0; Win64; x64) AppleWebKit/537.36 (KHTML, like Gecko) Chrome/131.0.0.0 Safari/537.36","WebKit","Chrome","131.0.0.0","Windows","10.0","https://app.prolific.com/","en,zh-CN;q=0.9,zh;q=0.8,ja;q=0.7,zh-TW;q=0.6","6500b3922f1493c553f2037f","67949641171f97c04e14fb34","0eyrvjnk9si","","null","<img   src='G_4.jpg' height='90'> <img   src='G_1.jpg' height='90'> <img  src='G_5.jpg' height='90'> <img    src='G_3.jpg' height='90'> <img src='G_6.jpg' height='90'> <img src='G_7.jpg' height='90'> <img src='G_8.jpg' height='90'> <img src='G_2.jpg' height='90'>","null","Animation1",""
"","","","","","html-keyboard-response","67","143529","0.0-63.0","27","1","2025-01-25 07:48:20","ce241dad9188715340bebbd1a8cad6cc","73.231.147.146","Mozilla/5.0 (Windows NT 10.0; Win64; x64) AppleWebKit/537.36 (KHTML, like Gecko) Chrome/131.0.0.0 Safari/537.36","WebKit","Chrome","131.0.0.0","Windows","10.0","https://app.prolific.com/","en,zh-CN;q=0.9,zh;q=0.8,ja;q=0.7,zh-TW;q=0.6","6500b3922f1493c553f2037f","67949641171f97c04e14fb34","0eyrvjnk9si","","null","<img   src='G_4.jpg' height='90'> <img id='selected'   src='G_1.jpg' height='90'> <img  src='G_5.jpg' height='90'> <img    src='G_3.jpg' height='90'> <img src='G_6.jpg' height='90'> <img src='G_7.jpg' height='90'> <img src='G_8.jpg' height='90'> <img src='G_2.jpg' height='90'>","null","Animation1",""
"","","","","","html-keyboard-response","68","144045","0.0-64.0","27","1","2025-01-25 07:48:20","ce241dad9188715340bebbd1a8cad6cc","73.231.147.146","Mozilla/5.0 (Windows NT 10.0; Win64; x64) AppleWebKit/537.36 (KHTML, like Gecko) Chrome/131.0.0.0 Safari/537.36","WebKit","Chrome","131.0.0.0","Windows","10.0","https://app.prolific.com/","en,zh-CN;q=0.9,zh;q=0.8,ja;q=0.7,zh-TW;q=0.6","6500b3922f1493c553f2037f","67949641171f97c04e14fb34","0eyrvjnk9si","","null","<img   src='G_4.jpg' height='90'> <img id='selected'   src='G_1.jpg' height='90'> <img id='selected'  src='G_5.jpg' height='90'> <img    src='G_3.jpg' height='90'> <img src='G_6.jpg' height='90'> <img src='G_7.jpg' height='90'> <img src='G_8.jpg' height='90'> <img src='G_2.jpg' height='90'>","null","Animation1",""
"","","","","","html-keyboard-response","69","144558","0.0-65.0","27","1","2025-01-25 07:48:20","ce241dad9188715340bebbd1a8cad6cc","73.231.147.146","Mozilla/5.0 (Windows NT 10.0; Win64; x64) AppleWebKit/537.36 (KHTML, like Gecko) Chrome/131.0.0.0 Safari/537.36","WebKit","Chrome","131.0.0.0","Windows","10.0","https://app.prolific.com/","en,zh-CN;q=0.9,zh;q=0.8,ja;q=0.7,zh-TW;q=0.6","6500b3922f1493c553f2037f","67949641171f97c04e14fb34","0eyrvjnk9si","","null","<img   src='G_4.jpg' height='90'> <img id='swapped'  src='G_5.jpg' height='90'> <img id='swapped'   src='G_1.jpg' height='90'> <img    src='G_3.jpg' height='90'> <img src='G_6.jpg' height='90'> <img src='G_7.jpg' height='90'> <img src='G_8.jpg' height='90'> <img src='G_2.jpg' height='90'>","null","Animation1",""
"","","","","","html-keyboard-response","70","144872","0.0-66.0","27","1","2025-01-25 07:48:20","ce241dad9188715340bebbd1a8cad6cc","73.231.147.146","Mozilla/5.0 (Windows NT 10.0; Win64; x64) AppleWebKit/537.36 (KHTML, like Gecko) Chrome/131.0.0.0 Safari/537.36","WebKit","Chrome","131.0.0.0","Windows","10.0","https://app.prolific.com/","en,zh-CN;q=0.9,zh;q=0.8,ja;q=0.7,zh-TW;q=0.6","6500b3922f1493c553f2037f","67949641171f97c04e14fb34","0eyrvjnk9si","","null","<img   src='G_4.jpg' height='90'> <img   src='G_5.jpg' height='90'> <img    src='G_1.jpg' height='90'> <img    src='G_3.jpg' height='90'> <img src='G_6.jpg' height='90'> <img src='G_7.jpg' height='90'> <img src='G_8.jpg' height='90'> <img src='G_2.jpg' height='90'>","null","Animation1",""
"","","","","","html-keyboard-response","71","145387","0.0-67.0","27","1","2025-01-25 07:48:20","ce241dad9188715340bebbd1a8cad6cc","73.231.147.146","Mozilla/5.0 (Windows NT 10.0; Win64; x64) AppleWebKit/537.36 (KHTML, like Gecko) Chrome/131.0.0.0 Safari/537.36","WebKit","Chrome","131.0.0.0","Windows","10.0","https://app.prolific.com/","en,zh-CN;q=0.9,zh;q=0.8,ja;q=0.7,zh-TW;q=0.6","6500b3922f1493c553f2037f","67949641171f97c04e14fb34","0eyrvjnk9si","","null","<img id='selected'   src='G_4.jpg' height='90'> <img   src='G_5.jpg' height='90'> <img    src='G_1.jpg' height='90'> <img    src='G_3.jpg' height='90'> <img src='G_6.jpg' height='90'> <img src='G_7.jpg' height='90'> <img src='G_8.jpg' height='90'> <img src='G_2.jpg' height='90'>","null","Animation1",""
"","","","","","html-keyboard-response","72","145902","0.0-68.0","27","1","2025-01-25 07:48:20","ce241dad9188715340bebbd1a8cad6cc","73.231.147.146","Mozilla/5.0 (Windows NT 10.0; Win64; x64) AppleWebKit/537.36 (KHTML, like Gecko) Chrome/131.0.0.0 Safari/537.36","WebKit","Chrome","131.0.0.0","Windows","10.0","https://app.prolific.com/","en,zh-CN;q=0.9,zh;q=0.8,ja;q=0.7,zh-TW;q=0.6","6500b3922f1493c553f2037f","67949641171f97c04e14fb34","0eyrvjnk9si","","null","<img id='selected'   src='G_4.jpg' height='90'> <img id='selected'   src='G_5.jpg' height='90'> <img    src='G_1.jpg' height='90'> <img    src='G_3.jpg' height='90'> <img src='G_6.jpg' height='90'> <img src='G_7.jpg' height='90'> <img src='G_8.jpg' height='90'> <img src='G_2.jpg' height='90'>","null","Animation1",""
"","","","","","html-keyboard-response","73","146417","0.0-69.0","27","1","2025-01-25 07:48:20","ce241dad9188715340bebbd1a8cad6cc","73.231.147.146","Mozilla/5.0 (Windows NT 10.0; Win64; x64) AppleWebKit/537.36 (KHTML, like Gecko) Chrome/131.0.0.0 Safari/537.36","WebKit","Chrome","131.0.0.0","Windows","10.0","https://app.prolific.com/","en,zh-CN;q=0.9,zh;q=0.8,ja;q=0.7,zh-TW;q=0.6","6500b3922f1493c553f2037f","67949641171f97c04e14fb34","0eyrvjnk9si","","null","<img id='swapped'   src='G_5.jpg' height='90'> <img id='swapped'   src='G_4.jpg' height='90'> <img    src='G_1.jpg' height='90'> <img    src='G_3.jpg' height='90'> <img src='G_6.jpg' height='90'> <img src='G_7.jpg' height='90'> <img src='G_8.jpg' height='90'> <img src='G_2.jpg' height='90'>","null","Animation1",""
"","","","","","html-keyboard-response","74","146728","0.0-70.0","27","1","2025-01-25 07:48:20","ce241dad9188715340bebbd1a8cad6cc","73.231.147.146","Mozilla/5.0 (Windows NT 10.0; Win64; x64) AppleWebKit/537.36 (KHTML, like Gecko) Chrome/131.0.0.0 Safari/537.36","WebKit","Chrome","131.0.0.0","Windows","10.0","https://app.prolific.com/","en,zh-CN;q=0.9,zh;q=0.8,ja;q=0.7,zh-TW;q=0.6","6500b3922f1493c553f2037f","67949641171f97c04e14fb34","0eyrvjnk9si","","null","<img    src='G_5.jpg' height='90'> <img    src='G_4.jpg' height='90'> <img    src='G_1.jpg' height='90'> <img    src='G_3.jpg' height='90'> <img src='G_6.jpg' height='90'> <img src='G_7.jpg' height='90'> <img src='G_8.jpg' height='90'> <img src='G_2.jpg' height='90'>","null","Animation1",""
"","","","","","html-keyboard-response","75","147243","0.0-71.0","27","1","2025-01-25 07:48:20","ce241dad9188715340bebbd1a8cad6cc","73.231.147.146","Mozilla/5.0 (Windows NT 10.0; Win64; x64) AppleWebKit/537.36 (KHTML, like Gecko) Chrome/131.0.0.0 Safari/537.36","WebKit","Chrome","131.0.0.0","Windows","10.0","https://app.prolific.com/","en,zh-CN;q=0.9,zh;q=0.8,ja;q=0.7,zh-TW;q=0.6","6500b3922f1493c553f2037f","67949641171f97c04e14fb34","0eyrvjnk9si","","null","<img    src='G_5.jpg' height='90'> <img    src='G_4.jpg' height='90'> <img    src='G_1.jpg' height='90'> <img id='selected'    src='G_3.jpg' height='90'> <img src='G_6.jpg' height='90'> <img src='G_7.jpg' height='90'> <img src='G_8.jpg' height='90'> <img src='G_2.jpg' height='90'>","null","Animation1",""
"","","","","","html-keyboard-response","76","147757","0.0-72.0","27","1","2025-01-25 07:48:20","ce241dad9188715340bebbd1a8cad6cc","73.231.147.146","Mozilla/5.0 (Windows NT 10.0; Win64; x64) AppleWebKit/537.36 (KHTML, like Gecko) Chrome/131.0.0.0 Safari/537.36","WebKit","Chrome","131.0.0.0","Windows","10.0","https://app.prolific.com/","en,zh-CN;q=0.9,zh;q=0.8,ja;q=0.7,zh-TW;q=0.6","6500b3922f1493c553f2037f","67949641171f97c04e14fb34","0eyrvjnk9si","","null","<img    src='G_5.jpg' height='90'> <img    src='G_4.jpg' height='90'> <img    src='G_1.jpg' height='90'> <img id='selected'    src='G_3.jpg' height='90'> <img id='selected' src='G_6.jpg' height='90'> <img src='G_7.jpg' height='90'> <img src='G_8.jpg' height='90'> <img src='G_2.jpg' height='90'>","null","Animation1",""
"","","","","","html-keyboard-response","77","148273","0.0-73.0","27","1","2025-01-25 07:48:20","ce241dad9188715340bebbd1a8cad6cc","73.231.147.146","Mozilla/5.0 (Windows NT 10.0; Win64; x64) AppleWebKit/537.36 (KHTML, like Gecko) Chrome/131.0.0.0 Safari/537.36","WebKit","Chrome","131.0.0.0","Windows","10.0","https://app.prolific.com/","en,zh-CN;q=0.9,zh;q=0.8,ja;q=0.7,zh-TW;q=0.6","6500b3922f1493c553f2037f","67949641171f97c04e14fb34","0eyrvjnk9si","","null","<img    src='G_5.jpg' height='90'> <img    src='G_4.jpg' height='90'> <img    src='G_1.jpg' height='90'> <img id='swapped' src='G_6.jpg' height='90'> <img id='swapped'    src='G_3.jpg' height='90'> <img src='G_7.jpg' height='90'> <img src='G_8.jpg' height='90'> <img src='G_2.jpg' height='90'>","null","Animation1",""
"","","","","","html-keyboard-response","78","148585","0.0-74.0","27","1","2025-01-25 07:48:20","ce241dad9188715340bebbd1a8cad6cc","73.231.147.146","Mozilla/5.0 (Windows NT 10.0; Win64; x64) AppleWebKit/537.36 (KHTML, like Gecko) Chrome/131.0.0.0 Safari/537.36","WebKit","Chrome","131.0.0.0","Windows","10.0","https://app.prolific.com/","en,zh-CN;q=0.9,zh;q=0.8,ja;q=0.7,zh-TW;q=0.6","6500b3922f1493c553f2037f","67949641171f97c04e14fb34","0eyrvjnk9si","","null","<img    src='G_5.jpg' height='90'> <img    src='G_4.jpg' height='90'> <img    src='G_1.jpg' height='90'> <img  src='G_6.jpg' height='90'> <img     src='G_3.jpg' height='90'> <img src='G_7.jpg' height='90'> <img src='G_8.jpg' height='90'> <img src='G_2.jpg' height='90'>","null","Animation1",""
"","","","","","html-keyboard-response","79","149101","0.0-75.0","27","1","2025-01-25 07:48:20","ce241dad9188715340bebbd1a8cad6cc","73.231.147.146","Mozilla/5.0 (Windows NT 10.0; Win64; x64) AppleWebKit/537.36 (KHTML, like Gecko) Chrome/131.0.0.0 Safari/537.36","WebKit","Chrome","131.0.0.0","Windows","10.0","https://app.prolific.com/","en,zh-CN;q=0.9,zh;q=0.8,ja;q=0.7,zh-TW;q=0.6","6500b3922f1493c553f2037f","67949641171f97c04e14fb34","0eyrvjnk9si","","null","<img    src='G_5.jpg' height='90'> <img    src='G_4.jpg' height='90'> <img id='selected'    src='G_1.jpg' height='90'> <img  src='G_6.jpg' height='90'> <img     src='G_3.jpg' height='90'> <img src='G_7.jpg' height='90'> <img src='G_8.jpg' height='90'> <img src='G_2.jpg' height='90'>","null","Animation1",""
"","","","","","html-keyboard-response","80","149616","0.0-76.0","27","1","2025-01-25 07:48:20","ce241dad9188715340bebbd1a8cad6cc","73.231.147.146","Mozilla/5.0 (Windows NT 10.0; Win64; x64) AppleWebKit/537.36 (KHTML, like Gecko) Chrome/131.0.0.0 Safari/537.36","WebKit","Chrome","131.0.0.0","Windows","10.0","https://app.prolific.com/","en,zh-CN;q=0.9,zh;q=0.8,ja;q=0.7,zh-TW;q=0.6","6500b3922f1493c553f2037f","67949641171f97c04e14fb34","0eyrvjnk9si","","null","<img    src='G_5.jpg' height='90'> <img    src='G_4.jpg' height='90'> <img id='selected'    src='G_1.jpg' height='90'> <img id='selected'  src='G_6.jpg' height='90'> <img     src='G_3.jpg' height='90'> <img src='G_7.jpg' height='90'> <img src='G_8.jpg' height='90'> <img src='G_2.jpg' height='90'>","null","Animation1",""
"","","","","","html-keyboard-response","81","150131","0.0-77.0","27","1","2025-01-25 07:48:20","ce241dad9188715340bebbd1a8cad6cc","73.231.147.146","Mozilla/5.0 (Windows NT 10.0; Win64; x64) AppleWebKit/537.36 (KHTML, like Gecko) Chrome/131.0.0.0 Safari/537.36","WebKit","Chrome","131.0.0.0","Windows","10.0","https://app.prolific.com/","en,zh-CN;q=0.9,zh;q=0.8,ja;q=0.7,zh-TW;q=0.6","6500b3922f1493c553f2037f","67949641171f97c04e14fb34","0eyrvjnk9si","","null","<img    src='G_5.jpg' height='90'> <img    src='G_4.jpg' height='90'> <img id='swapped'  src='G_6.jpg' height='90'> <img id='swapped'    src='G_1.jpg' height='90'> <img     src='G_3.jpg' height='90'> <img src='G_7.jpg' height='90'> <img src='G_8.jpg' height='90'> <img src='G_2.jpg' height='90'>","null","Animation1",""
"","","","","","html-keyboard-response","82","150443","0.0-78.0","27","1","2025-01-25 07:48:20","ce241dad9188715340bebbd1a8cad6cc","73.231.147.146","Mozilla/5.0 (Windows NT 10.0; Win64; x64) AppleWebKit/537.36 (KHTML, like Gecko) Chrome/131.0.0.0 Safari/537.36","WebKit","Chrome","131.0.0.0","Windows","10.0","https://app.prolific.com/","en,zh-CN;q=0.9,zh;q=0.8,ja;q=0.7,zh-TW;q=0.6","6500b3922f1493c553f2037f","67949641171f97c04e14fb34","0eyrvjnk9si","","null","<img    src='G_5.jpg' height='90'> <img    src='G_4.jpg' height='90'> <img   src='G_6.jpg' height='90'> <img     src='G_1.jpg' height='90'> <img     src='G_3.jpg' height='90'> <img src='G_7.jpg' height='90'> <img src='G_8.jpg' height='90'> <img src='G_2.jpg' height='90'>","null","Animation1",""
"","","","","","html-keyboard-response","83","150961","0.0-79.0","27","1","2025-01-25 07:48:20","ce241dad9188715340bebbd1a8cad6cc","73.231.147.146","Mozilla/5.0 (Windows NT 10.0; Win64; x64) AppleWebKit/537.36 (KHTML, like Gecko) Chrome/131.0.0.0 Safari/537.36","WebKit","Chrome","131.0.0.0","Windows","10.0","https://app.prolific.com/","en,zh-CN;q=0.9,zh;q=0.8,ja;q=0.7,zh-TW;q=0.6","6500b3922f1493c553f2037f","67949641171f97c04e14fb34","0eyrvjnk9si","","null","<img    src='G_5.jpg' height='90'> <img id='selected'    src='G_4.jpg' height='90'> <img   src='G_6.jpg' height='90'> <img     src='G_1.jpg' height='90'> <img     src='G_3.jpg' height='90'> <img src='G_7.jpg' height='90'> <img src='G_8.jpg' height='90'> <img src='G_2.jpg' height='90'>","null","Animation1",""
"","","","","","html-keyboard-response","84","151478","0.0-80.0","27","1","2025-01-25 07:48:20","ce241dad9188715340bebbd1a8cad6cc","73.231.147.146","Mozilla/5.0 (Windows NT 10.0; Win64; x64) AppleWebKit/537.36 (KHTML, like Gecko) Chrome/131.0.0.0 Safari/537.36","WebKit","Chrome","131.0.0.0","Windows","10.0","https://app.prolific.com/","en,zh-CN;q=0.9,zh;q=0.8,ja;q=0.7,zh-TW;q=0.6","6500b3922f1493c553f2037f","67949641171f97c04e14fb34","0eyrvjnk9si","","null","<img    src='G_5.jpg' height='90'> <img id='selected'    src='G_4.jpg' height='90'> <img id='selected'   src='G_6.jpg' height='90'> <img     src='G_1.jpg' height='90'> <img     src='G_3.jpg' height='90'> <img src='G_7.jpg' height='90'> <img src='G_8.jpg' height='90'> <img src='G_2.jpg' height='90'>","null","Animation1",""
"","","","","","html-keyboard-response","85","151989","0.0-81.0","27","1","2025-01-25 07:48:20","ce241dad9188715340bebbd1a8cad6cc","73.231.147.146","Mozilla/5.0 (Windows NT 10.0; Win64; x64) AppleWebKit/537.36 (KHTML, like Gecko) Chrome/131.0.0.0 Safari/537.36","WebKit","Chrome","131.0.0.0","Windows","10.0","https://app.prolific.com/","en,zh-CN;q=0.9,zh;q=0.8,ja;q=0.7,zh-TW;q=0.6","6500b3922f1493c553f2037f","67949641171f97c04e14fb34","0eyrvjnk9si","","null","<img    src='G_5.jpg' height='90'> <img id='swapped'   src='G_6.jpg' height='90'> <img id='swapped'    src='G_4.jpg' height='90'> <img     src='G_1.jpg' height='90'> <img     src='G_3.jpg' height='90'> <img src='G_7.jpg' height='90'> <img src='G_8.jpg' height='90'> <img src='G_2.jpg' height='90'>","null","Animation1",""
"","","","","","html-keyboard-response","86","152302","0.0-82.0","27","1","2025-01-25 07:48:20","ce241dad9188715340bebbd1a8cad6cc","73.231.147.146","Mozilla/5.0 (Windows NT 10.0; Win64; x64) AppleWebKit/537.36 (KHTML, like Gecko) Chrome/131.0.0.0 Safari/537.36","WebKit","Chrome","131.0.0.0","Windows","10.0","https://app.prolific.com/","en,zh-CN;q=0.9,zh;q=0.8,ja;q=0.7,zh-TW;q=0.6","6500b3922f1493c553f2037f","67949641171f97c04e14fb34","0eyrvjnk9si","","null","<img    src='G_5.jpg' height='90'> <img    src='G_6.jpg' height='90'> <img     src='G_4.jpg' height='90'> <img     src='G_1.jpg' height='90'> <img     src='G_3.jpg' height='90'> <img src='G_7.jpg' height='90'> <img src='G_8.jpg' height='90'> <img src='G_2.jpg' height='90'>","null","Animation1",""
"","","","","","html-keyboard-response","87","152818","0.0-83.0","27","1","2025-01-25 07:48:20","ce241dad9188715340bebbd1a8cad6cc","73.231.147.146","Mozilla/5.0 (Windows NT 10.0; Win64; x64) AppleWebKit/537.36 (KHTML, like Gecko) Chrome/131.0.0.0 Safari/537.36","WebKit","Chrome","131.0.0.0","Windows","10.0","https://app.prolific.com/","en,zh-CN;q=0.9,zh;q=0.8,ja;q=0.7,zh-TW;q=0.6","6500b3922f1493c553f2037f","67949641171f97c04e14fb34","0eyrvjnk9si","","null","<img id='selected'    src='G_5.jpg' height='90'> <img    src='G_6.jpg' height='90'> <img     src='G_4.jpg' height='90'> <img     src='G_1.jpg' height='90'> <img     src='G_3.jpg' height='90'> <img src='G_7.jpg' height='90'> <img src='G_8.jpg' height='90'> <img src='G_2.jpg' height='90'>","null","Animation1",""
"","","","","","html-keyboard-response","88","153332","0.0-84.0","27","1","2025-01-25 07:48:20","ce241dad9188715340bebbd1a8cad6cc","73.231.147.146","Mozilla/5.0 (Windows NT 10.0; Win64; x64) AppleWebKit/537.36 (KHTML, like Gecko) Chrome/131.0.0.0 Safari/537.36","WebKit","Chrome","131.0.0.0","Windows","10.0","https://app.prolific.com/","en,zh-CN;q=0.9,zh;q=0.8,ja;q=0.7,zh-TW;q=0.6","6500b3922f1493c553f2037f","67949641171f97c04e14fb34","0eyrvjnk9si","","null","<img id='selected'    src='G_5.jpg' height='90'> <img id='selected'    src='G_6.jpg' height='90'> <img     src='G_4.jpg' height='90'> <img     src='G_1.jpg' height='90'> <img     src='G_3.jpg' height='90'> <img src='G_7.jpg' height='90'> <img src='G_8.jpg' height='90'> <img src='G_2.jpg' height='90'>","null","Animation1",""
"","","","","","html-keyboard-response","89","153848","0.0-85.0","27","1","2025-01-25 07:48:20","ce241dad9188715340bebbd1a8cad6cc","73.231.147.146","Mozilla/5.0 (Windows NT 10.0; Win64; x64) AppleWebKit/537.36 (KHTML, like Gecko) Chrome/131.0.0.0 Safari/537.36","WebKit","Chrome","131.0.0.0","Windows","10.0","https://app.prolific.com/","en,zh-CN;q=0.9,zh;q=0.8,ja;q=0.7,zh-TW;q=0.6","6500b3922f1493c553f2037f","67949641171f97c04e14fb34","0eyrvjnk9si","","null","<img id='selected'    src='G_5.jpg' height='90'> <img id='selected'    src='G_6.jpg' height='90'> <img     src='G_4.jpg' height='90'> <img     src='G_1.jpg' height='90'> <img     src='G_3.jpg' height='90'> <img src='G_7.jpg' height='90'> <img src='G_8.jpg' height='90'> <img src='G_2.jpg' height='90'>","null","Animation1",""
"","","","","","html-keyboard-response","90","154159","0.0-86.0","27","1","2025-01-25 07:48:20","ce241dad9188715340bebbd1a8cad6cc","73.231.147.146","Mozilla/5.0 (Windows NT 10.0; Win64; x64) AppleWebKit/537.36 (KHTML, like Gecko) Chrome/131.0.0.0 Safari/537.36","WebKit","Chrome","131.0.0.0","Windows","10.0","https://app.prolific.com/","en,zh-CN;q=0.9,zh;q=0.8,ja;q=0.7,zh-TW;q=0.6","6500b3922f1493c553f2037f","67949641171f97c04e14fb34","0eyrvjnk9si","","null","<img     src='G_5.jpg' height='90'> <img     src='G_6.jpg' height='90'> <img     src='G_4.jpg' height='90'> <img     src='G_1.jpg' height='90'> <img     src='G_3.jpg' height='90'> <img src='G_7.jpg' height='90'> <img src='G_8.jpg' height='90'> <img src='G_2.jpg' height='90'>","null","Animation1",""
"","","","","","html-keyboard-response","91","154671","0.0-87.0","27","1","2025-01-25 07:48:20","ce241dad9188715340bebbd1a8cad6cc","73.231.147.146","Mozilla/5.0 (Windows NT 10.0; Win64; x64) AppleWebKit/537.36 (KHTML, like Gecko) Chrome/131.0.0.0 Safari/537.36","WebKit","Chrome","131.0.0.0","Windows","10.0","https://app.prolific.com/","en,zh-CN;q=0.9,zh;q=0.8,ja;q=0.7,zh-TW;q=0.6","6500b3922f1493c553f2037f","67949641171f97c04e14fb34","0eyrvjnk9si","","null","<img     src='G_5.jpg' height='90'> <img     src='G_6.jpg' height='90'> <img     src='G_4.jpg' height='90'> <img     src='G_1.jpg' height='90'> <img id='selected'     src='G_3.jpg' height='90'> <img src='G_7.jpg' height='90'> <img src='G_8.jpg' height='90'> <img src='G_2.jpg' height='90'>","null","Animation1",""
"","","","","","html-keyboard-response","92","155187","0.0-88.0","27","1","2025-01-25 07:48:20","ce241dad9188715340bebbd1a8cad6cc","73.231.147.146","Mozilla/5.0 (Windows NT 10.0; Win64; x64) AppleWebKit/537.36 (KHTML, like Gecko) Chrome/131.0.0.0 Safari/537.36","WebKit","Chrome","131.0.0.0","Windows","10.0","https://app.prolific.com/","en,zh-CN;q=0.9,zh;q=0.8,ja;q=0.7,zh-TW;q=0.6","6500b3922f1493c553f2037f","67949641171f97c04e14fb34","0eyrvjnk9si","","null","<img     src='G_5.jpg' height='90'> <img     src='G_6.jpg' height='90'> <img     src='G_4.jpg' height='90'> <img     src='G_1.jpg' height='90'> <img id='selected'     src='G_3.jpg' height='90'> <img id='selected' src='G_7.jpg' height='90'> <img src='G_8.jpg' height='90'> <img src='G_2.jpg' height='90'>","null","Animation1",""
"","","","","","html-keyboard-response","93","155702","0.0-89.0","27","1","2025-01-25 07:48:20","ce241dad9188715340bebbd1a8cad6cc","73.231.147.146","Mozilla/5.0 (Windows NT 10.0; Win64; x64) AppleWebKit/537.36 (KHTML, like Gecko) Chrome/131.0.0.0 Safari/537.36","WebKit","Chrome","131.0.0.0","Windows","10.0","https://app.prolific.com/","en,zh-CN;q=0.9,zh;q=0.8,ja;q=0.7,zh-TW;q=0.6","6500b3922f1493c553f2037f","67949641171f97c04e14fb34","0eyrvjnk9si","","null","<img     src='G_5.jpg' height='90'> <img     src='G_6.jpg' height='90'> <img     src='G_4.jpg' height='90'> <img     src='G_1.jpg' height='90'> <img id='swapped' src='G_7.jpg' height='90'> <img id='swapped'     src='G_3.jpg' height='90'> <img src='G_8.jpg' height='90'> <img src='G_2.jpg' height='90'>","null","Animation1",""
"","","","","","html-keyboard-response","94","156014","0.0-90.0","27","1","2025-01-25 07:48:20","ce241dad9188715340bebbd1a8cad6cc","73.231.147.146","Mozilla/5.0 (Windows NT 10.0; Win64; x64) AppleWebKit/537.36 (KHTML, like Gecko) Chrome/131.0.0.0 Safari/537.36","WebKit","Chrome","131.0.0.0","Windows","10.0","https://app.prolific.com/","en,zh-CN;q=0.9,zh;q=0.8,ja;q=0.7,zh-TW;q=0.6","6500b3922f1493c553f2037f","67949641171f97c04e14fb34","0eyrvjnk9si","","null","<img     src='G_5.jpg' height='90'> <img     src='G_6.jpg' height='90'> <img     src='G_4.jpg' height='90'> <img     src='G_1.jpg' height='90'> <img  src='G_7.jpg' height='90'> <img      src='G_3.jpg' height='90'> <img src='G_8.jpg' height='90'> <img src='G_2.jpg' height='90'>","null","Animation1",""
"","","","","","html-keyboard-response","95","156529","0.0-91.0","27","1","2025-01-25 07:48:20","ce241dad9188715340bebbd1a8cad6cc","73.231.147.146","Mozilla/5.0 (Windows NT 10.0; Win64; x64) AppleWebKit/537.36 (KHTML, like Gecko) Chrome/131.0.0.0 Safari/537.36","WebKit","Chrome","131.0.0.0","Windows","10.0","https://app.prolific.com/","en,zh-CN;q=0.9,zh;q=0.8,ja;q=0.7,zh-TW;q=0.6","6500b3922f1493c553f2037f","67949641171f97c04e14fb34","0eyrvjnk9si","","null","<img     src='G_5.jpg' height='90'> <img     src='G_6.jpg' height='90'> <img     src='G_4.jpg' height='90'> <img id='selected'     src='G_1.jpg' height='90'> <img  src='G_7.jpg' height='90'> <img      src='G_3.jpg' height='90'> <img src='G_8.jpg' height='90'> <img src='G_2.jpg' height='90'>","null","Animation1",""
"","","","","","html-keyboard-response","96","157045","0.0-92.0","27","1","2025-01-25 07:48:20","ce241dad9188715340bebbd1a8cad6cc","73.231.147.146","Mozilla/5.0 (Windows NT 10.0; Win64; x64) AppleWebKit/537.36 (KHTML, like Gecko) Chrome/131.0.0.0 Safari/537.36","WebKit","Chrome","131.0.0.0","Windows","10.0","https://app.prolific.com/","en,zh-CN;q=0.9,zh;q=0.8,ja;q=0.7,zh-TW;q=0.6","6500b3922f1493c553f2037f","67949641171f97c04e14fb34","0eyrvjnk9si","","null","<img     src='G_5.jpg' height='90'> <img     src='G_6.jpg' height='90'> <img     src='G_4.jpg' height='90'> <img id='selected'     src='G_1.jpg' height='90'> <img id='selected'  src='G_7.jpg' height='90'> <img      src='G_3.jpg' height='90'> <img src='G_8.jpg' height='90'> <img src='G_2.jpg' height='90'>","null","Animation1",""
"","","","","","html-keyboard-response","97","157560","0.0-93.0","27","1","2025-01-25 07:48:20","ce241dad9188715340bebbd1a8cad6cc","73.231.147.146","Mozilla/5.0 (Windows NT 10.0; Win64; x64) AppleWebKit/537.36 (KHTML, like Gecko) Chrome/131.0.0.0 Safari/537.36","WebKit","Chrome","131.0.0.0","Windows","10.0","https://app.prolific.com/","en,zh-CN;q=0.9,zh;q=0.8,ja;q=0.7,zh-TW;q=0.6","6500b3922f1493c553f2037f","67949641171f97c04e14fb34","0eyrvjnk9si","","null","<img     src='G_5.jpg' height='90'> <img     src='G_6.jpg' height='90'> <img     src='G_4.jpg' height='90'> <img id='selected'     src='G_1.jpg' height='90'> <img id='selected'  src='G_7.jpg' height='90'> <img      src='G_3.jpg' height='90'> <img src='G_8.jpg' height='90'> <img src='G_2.jpg' height='90'>","null","Animation1",""
"","","","","","html-keyboard-response","98","157872","0.0-94.0","27","1","2025-01-25 07:48:20","ce241dad9188715340bebbd1a8cad6cc","73.231.147.146","Mozilla/5.0 (Windows NT 10.0; Win64; x64) AppleWebKit/537.36 (KHTML, like Gecko) Chrome/131.0.0.0 Safari/537.36","WebKit","Chrome","131.0.0.0","Windows","10.0","https://app.prolific.com/","en,zh-CN;q=0.9,zh;q=0.8,ja;q=0.7,zh-TW;q=0.6","6500b3922f1493c553f2037f","67949641171f97c04e14fb34","0eyrvjnk9si","","null","<img     src='G_5.jpg' height='90'> <img     src='G_6.jpg' height='90'> <img     src='G_4.jpg' height='90'> <img      src='G_1.jpg' height='90'> <img   src='G_7.jpg' height='90'> <img      src='G_3.jpg' height='90'> <img src='G_8.jpg' height='90'> <img src='G_2.jpg' height='90'>","null","Animation1",""
"","","","","","html-keyboard-response","99","158385","0.0-95.0","27","1","2025-01-25 07:48:20","ce241dad9188715340bebbd1a8cad6cc","73.231.147.146","Mozilla/5.0 (Windows NT 10.0; Win64; x64) AppleWebKit/537.36 (KHTML, like Gecko) Chrome/131.0.0.0 Safari/537.36","WebKit","Chrome","131.0.0.0","Windows","10.0","https://app.prolific.com/","en,zh-CN;q=0.9,zh;q=0.8,ja;q=0.7,zh-TW;q=0.6","6500b3922f1493c553f2037f","67949641171f97c04e14fb34","0eyrvjnk9si","","null","<img     src='G_5.jpg' height='90'> <img     src='G_6.jpg' height='90'> <img     src='G_4.jpg' height='90'> <img      src='G_1.jpg' height='90'> <img   src='G_7.jpg' height='90'> <img id='selected'      src='G_3.jpg' height='90'> <img src='G_8.jpg' height='90'> <img src='G_2.jpg' height='90'>","null","Animation1",""
"","","","","","html-keyboard-response","100","158900","0.0-96.0","27","1","2025-01-25 07:48:20","ce241dad9188715340bebbd1a8cad6cc","73.231.147.146","Mozilla/5.0 (Windows NT 10.0; Win64; x64) AppleWebKit/537.36 (KHTML, like Gecko) Chrome/131.0.0.0 Safari/537.36","WebKit","Chrome","131.0.0.0","Windows","10.0","https://app.prolific.com/","en,zh-CN;q=0.9,zh;q=0.8,ja;q=0.7,zh-TW;q=0.6","6500b3922f1493c553f2037f","67949641171f97c04e14fb34","0eyrvjnk9si","","null","<img     src='G_5.jpg' height='90'> <img     src='G_6.jpg' height='90'> <img     src='G_4.jpg' height='90'> <img      src='G_1.jpg' height='90'> <img   src='G_7.jpg' height='90'> <img id='selected'      src='G_3.jpg' height='90'> <img id='selected' src='G_8.jpg' height='90'> <img src='G_2.jpg' height='90'>","null","Animation1",""
"","","","","","html-keyboard-response","101","159414","0.0-97.0","27","1","2025-01-25 07:48:20","ce241dad9188715340bebbd1a8cad6cc","73.231.147.146","Mozilla/5.0 (Windows NT 10.0; Win64; x64) AppleWebKit/537.36 (KHTML, like Gecko) Chrome/131.0.0.0 Safari/537.36","WebKit","Chrome","131.0.0.0","Windows","10.0","https://app.prolific.com/","en,zh-CN;q=0.9,zh;q=0.8,ja;q=0.7,zh-TW;q=0.6","6500b3922f1493c553f2037f","67949641171f97c04e14fb34","0eyrvjnk9si","","null","<img     src='G_5.jpg' height='90'> <img     src='G_6.jpg' height='90'> <img     src='G_4.jpg' height='90'> <img      src='G_1.jpg' height='90'> <img   src='G_7.jpg' height='90'> <img id='selected'      src='G_3.jpg' height='90'> <img id='selected' src='G_8.jpg' height='90'> <img src='G_2.jpg' height='90'>","null","Animation1",""
"","","","","","html-keyboard-response","102","159724","0.0-98.0","27","1","2025-01-25 07:48:20","ce241dad9188715340bebbd1a8cad6cc","73.231.147.146","Mozilla/5.0 (Windows NT 10.0; Win64; x64) AppleWebKit/537.36 (KHTML, like Gecko) Chrome/131.0.0.0 Safari/537.36","WebKit","Chrome","131.0.0.0","Windows","10.0","https://app.prolific.com/","en,zh-CN;q=0.9,zh;q=0.8,ja;q=0.7,zh-TW;q=0.6","6500b3922f1493c553f2037f","67949641171f97c04e14fb34","0eyrvjnk9si","","null","<img     src='G_5.jpg' height='90'> <img     src='G_6.jpg' height='90'> <img     src='G_4.jpg' height='90'> <img      src='G_1.jpg' height='90'> <img   src='G_7.jpg' height='90'> <img       src='G_3.jpg' height='90'> <img  src='G_8.jpg' height='90'> <img src='G_2.jpg' height='90'>","null","Animation1",""
"","","","","","html-keyboard-response","103","160241","0.0-99.0","27","1","2025-01-25 07:48:20","ce241dad9188715340bebbd1a8cad6cc","73.231.147.146","Mozilla/5.0 (Windows NT 10.0; Win64; x64) AppleWebKit/537.36 (KHTML, like Gecko) Chrome/131.0.0.0 Safari/537.36","WebKit","Chrome","131.0.0.0","Windows","10.0","https://app.prolific.com/","en,zh-CN;q=0.9,zh;q=0.8,ja;q=0.7,zh-TW;q=0.6","6500b3922f1493c553f2037f","67949641171f97c04e14fb34","0eyrvjnk9si","","null","<img     src='G_5.jpg' height='90'> <img     src='G_6.jpg' height='90'> <img     src='G_4.jpg' height='90'> <img      src='G_1.jpg' height='90'> <img   src='G_7.jpg' height='90'> <img       src='G_3.jpg' height='90'> <img id='selected'  src='G_8.jpg' height='90'> <img src='G_2.jpg' height='90'>","null","Animation1",""
"","","","","","html-keyboard-response","104","160756","0.0-100.0","27","1","2025-01-25 07:48:20","ce241dad9188715340bebbd1a8cad6cc","73.231.147.146","Mozilla/5.0 (Windows NT 10.0; Win64; x64) AppleWebKit/537.36 (KHTML, like Gecko) Chrome/131.0.0.0 Safari/537.36","WebKit","Chrome","131.0.0.0","Windows","10.0","https://app.prolific.com/","en,zh-CN;q=0.9,zh;q=0.8,ja;q=0.7,zh-TW;q=0.6","6500b3922f1493c553f2037f","67949641171f97c04e14fb34","0eyrvjnk9si","","null","<img     src='G_5.jpg' height='90'> <img     src='G_6.jpg' height='90'> <img     src='G_4.jpg' height='90'> <img      src='G_1.jpg' height='90'> <img   src='G_7.jpg' height='90'> <img       src='G_3.jpg' height='90'> <img id='selected'  src='G_8.jpg' height='90'> <img id='selected' src='G_2.jpg' height='90'>","null","Animation1",""
"","","","","","html-keyboard-response","105","161273","0.0-101.0","27","1","2025-01-25 07:48:20","ce241dad9188715340bebbd1a8cad6cc","73.231.147.146","Mozilla/5.0 (Windows NT 10.0; Win64; x64) AppleWebKit/537.36 (KHTML, like Gecko) Chrome/131.0.0.0 Safari/537.36","WebKit","Chrome","131.0.0.0","Windows","10.0","https://app.prolific.com/","en,zh-CN;q=0.9,zh;q=0.8,ja;q=0.7,zh-TW;q=0.6","6500b3922f1493c553f2037f","67949641171f97c04e14fb34","0eyrvjnk9si","","null","<img     src='G_5.jpg' height='90'> <img     src='G_6.jpg' height='90'> <img     src='G_4.jpg' height='90'> <img      src='G_1.jpg' height='90'> <img   src='G_7.jpg' height='90'> <img       src='G_3.jpg' height='90'> <img id='swapped' src='G_2.jpg' height='90'> <img id='swapped'  src='G_8.jpg' height='90'>","null","Animation1",""
"","","","","","html-keyboard-response","106","161587","0.0-102.0","27","1","2025-01-25 07:48:20","ce241dad9188715340bebbd1a8cad6cc","73.231.147.146","Mozilla/5.0 (Windows NT 10.0; Win64; x64) AppleWebKit/537.36 (KHTML, like Gecko) Chrome/131.0.0.0 Safari/537.36","WebKit","Chrome","131.0.0.0","Windows","10.0","https://app.prolific.com/","en,zh-CN;q=0.9,zh;q=0.8,ja;q=0.7,zh-TW;q=0.6","6500b3922f1493c553f2037f","67949641171f97c04e14fb34","0eyrvjnk9si","","null","<img     src='G_5.jpg' height='90'> <img     src='G_6.jpg' height='90'> <img     src='G_4.jpg' height='90'> <img      src='G_1.jpg' height='90'> <img   src='G_7.jpg' height='90'> <img       src='G_3.jpg' height='90'> <img  src='G_2.jpg' height='90'> <img   src='G_8.jpg' height='90'>","null","Animation1",""
"","","","","","html-keyboard-response","107","162101","0.0-103.0","27","1","2025-01-25 07:48:20","ce241dad9188715340bebbd1a8cad6cc","73.231.147.146","Mozilla/5.0 (Windows NT 10.0; Win64; x64) AppleWebKit/537.36 (KHTML, like Gecko) Chrome/131.0.0.0 Safari/537.36","WebKit","Chrome","131.0.0.0","Windows","10.0","https://app.prolific.com/","en,zh-CN;q=0.9,zh;q=0.8,ja;q=0.7,zh-TW;q=0.6","6500b3922f1493c553f2037f","67949641171f97c04e14fb34","0eyrvjnk9si","","null","<img     src='G_5.jpg' height='90'> <img     src='G_6.jpg' height='90'> <img     src='G_4.jpg' height='90'> <img      src='G_1.jpg' height='90'> <img   src='G_7.jpg' height='90'> <img id='selected'       src='G_3.jpg' height='90'> <img  src='G_2.jpg' height='90'> <img   src='G_8.jpg' height='90'>","null","Animation1",""
"","","","","","html-keyboard-response","108","162616","0.0-104.0","27","1","2025-01-25 07:48:20","ce241dad9188715340bebbd1a8cad6cc","73.231.147.146","Mozilla/5.0 (Windows NT 10.0; Win64; x64) AppleWebKit/537.36 (KHTML, like Gecko) Chrome/131.0.0.0 Safari/537.36","WebKit","Chrome","131.0.0.0","Windows","10.0","https://app.prolific.com/","en,zh-CN;q=0.9,zh;q=0.8,ja;q=0.7,zh-TW;q=0.6","6500b3922f1493c553f2037f","67949641171f97c04e14fb34","0eyrvjnk9si","","null","<img     src='G_5.jpg' height='90'> <img     src='G_6.jpg' height='90'> <img     src='G_4.jpg' height='90'> <img      src='G_1.jpg' height='90'> <img   src='G_7.jpg' height='90'> <img id='selected'       src='G_3.jpg' height='90'> <img id='selected'  src='G_2.jpg' height='90'> <img   src='G_8.jpg' height='90'>","null","Animation1",""
"","","","","","html-keyboard-response","109","163133","0.0-105.0","27","1","2025-01-25 07:48:20","ce241dad9188715340bebbd1a8cad6cc","73.231.147.146","Mozilla/5.0 (Windows NT 10.0; Win64; x64) AppleWebKit/537.36 (KHTML, like Gecko) Chrome/131.0.0.0 Safari/537.36","WebKit","Chrome","131.0.0.0","Windows","10.0","https://app.prolific.com/","en,zh-CN;q=0.9,zh;q=0.8,ja;q=0.7,zh-TW;q=0.6","6500b3922f1493c553f2037f","67949641171f97c04e14fb34","0eyrvjnk9si","","null","<img     src='G_5.jpg' height='90'> <img     src='G_6.jpg' height='90'> <img     src='G_4.jpg' height='90'> <img      src='G_1.jpg' height='90'> <img   src='G_7.jpg' height='90'> <img id='selected'       src='G_3.jpg' height='90'> <img id='selected'  src='G_2.jpg' height='90'> <img   src='G_8.jpg' height='90'>","null","Animation1",""
"","","","","","html-keyboard-response","110","163448","0.0-106.0","27","1","2025-01-25 07:48:20","ce241dad9188715340bebbd1a8cad6cc","73.231.147.146","Mozilla/5.0 (Windows NT 10.0; Win64; x64) AppleWebKit/537.36 (KHTML, like Gecko) Chrome/131.0.0.0 Safari/537.36","WebKit","Chrome","131.0.0.0","Windows","10.0","https://app.prolific.com/","en,zh-CN;q=0.9,zh;q=0.8,ja;q=0.7,zh-TW;q=0.6","6500b3922f1493c553f2037f","67949641171f97c04e14fb34","0eyrvjnk9si","","null","<img     src='G_5.jpg' height='90'> <img     src='G_6.jpg' height='90'> <img     src='G_4.jpg' height='90'> <img      src='G_1.jpg' height='90'> <img   src='G_7.jpg' height='90'> <img        src='G_3.jpg' height='90'> <img   src='G_2.jpg' height='90'> <img   src='G_8.jpg' height='90'>","null","Animation1",""
"","","","","","html-keyboard-response","111","170893","0.0-107.0","27","1","2025-01-25 07:48:20","ce241dad9188715340bebbd1a8cad6cc","73.231.147.146","Mozilla/5.0 (Windows NT 10.0; Win64; x64) AppleWebKit/537.36 (KHTML, like Gecko) Chrome/131.0.0.0 Safari/537.36","WebKit","Chrome","131.0.0.0","Windows","10.0","https://app.prolific.com/","en,zh-CN;q=0.9,zh;q=0.8,ja;q=0.7,zh-TW;q=0.6","6500b3922f1493c553f2037f","67949641171f97c04e14fb34","0eyrvjnk9si","","7439","[""Did you notice any patterns? <br><br>Press Enter to watch that example again and follow the steps of Omgne Sort.""]","enter","",""
"","","","","","html-button-response","112","171306","0.0-108.0","27","1","2025-01-25 07:48:20","ce241dad9188715340bebbd1a8cad6cc","73.231.147.146","Mozilla/5.0 (Windows NT 10.0; Win64; x64) AppleWebKit/537.36 (KHTML, like Gecko) Chrome/131.0.0.0 Safari/537.36","WebKit","Chrome","131.0.0.0","Windows","10.0","https://app.prolific.com/","en,zh-CN;q=0.9,zh;q=0.8,ja;q=0.7,zh-TW;q=0.6","6500b3922f1493c553f2037f","67949641171f97c04e14fb34","0eyrvjnk9si","","null","<img id='selected' src='G_1.jpg' height='90'> <img src='G_3.jpg' height='90'> <img src='G_4.jpg' height='90'> <img src='G_5.jpg' height='90'> <img src='G_6.jpg' height='90'> <img src='G_7.jpg' height='90'> <img src='G_8.jpg' height='90'> <img src='G_2.jpg' height='90'>","null","Learning example 1",""
"","","","","","html-button-response","113","171617","0.0-109.0","27","1","2025-01-25 07:48:20","ce241dad9188715340bebbd1a8cad6cc","73.231.147.146","Mozilla/5.0 (Windows NT 10.0; Win64; x64) AppleWebKit/537.36 (KHTML, like Gecko) Chrome/131.0.0.0 Safari/537.36","WebKit","Chrome","131.0.0.0","Windows","10.0","https://app.prolific.com/","en,zh-CN;q=0.9,zh;q=0.8,ja;q=0.7,zh-TW;q=0.6","6500b3922f1493c553f2037f","67949641171f97c04e14fb34","0eyrvjnk9si","","null","<img id='selected' src='G_1.jpg' height='90'> <img id='selected' src='G_3.jpg' height='90'> <img src='G_4.jpg' height='90'> <img src='G_5.jpg' height='90'> <img src='G_6.jpg' height='90'> <img src='G_7.jpg' height='90'> <img src='G_8.jpg' height='90'> <img src='G_2.jpg' height='90'>","null","Learning example 1",""
"","","","","","html-button-response","114","171929","0.0-110.0","27","1","2025-01-25 07:48:20","ce241dad9188715340bebbd1a8cad6cc","73.231.147.146","Mozilla/5.0 (Windows NT 10.0; Win64; x64) AppleWebKit/537.36 (KHTML, like Gecko) Chrome/131.0.0.0 Safari/537.36","WebKit","Chrome","131.0.0.0","Windows","10.0","https://app.prolific.com/","en,zh-CN;q=0.9,zh;q=0.8,ja;q=0.7,zh-TW;q=0.6","6500b3922f1493c553f2037f","67949641171f97c04e14fb34","0eyrvjnk9si","","null","<img id='selected' src='G_1.jpg' height='90'> <img id='selected' src='G_3.jpg' height='90'> <img src='G_4.jpg' height='90'> <img src='G_5.jpg' height='90'> <img src='G_6.jpg' height='90'> <img src='G_7.jpg' height='90'> <img src='G_8.jpg' height='90'> <img src='G_2.jpg' height='90'>","null","Learning example 1",""
"","","","","","html-button-response","115","173010","0.0-111.0-0.0-0.0","27","1","2025-01-25 07:48:20","ce241dad9188715340bebbd1a8cad6cc","73.231.147.146","Mozilla/5.0 (Windows NT 10.0; Win64; x64) AppleWebKit/537.36 (KHTML, like Gecko) Chrome/131.0.0.0 Safari/537.36","WebKit","Chrome","131.0.0.0","Windows","10.0","https://app.prolific.com/","en,zh-CN;q=0.9,zh;q=0.8,ja;q=0.7,zh-TW;q=0.6","6500b3922f1493c553f2037f","67949641171f97c04e14fb34","0eyrvjnk9si","","1072","<img id='selected' src='G_1.jpg' height='90'> <img id='selected' src='G_3.jpg' height='90'> <img src='G_4.jpg' height='90'> <img src='G_5.jpg' height='90'> <img src='G_6.jpg' height='90'> <img src='G_7.jpg' height='90'> <img src='G_8.jpg' height='90'> <img src='G_2.jpg' height='90'>","0","Learning example 1",""
"","","","","","html-button-response","116","173372","0.0-111.1-0.1-0.1","27","1","2025-01-25 07:48:20","ce241dad9188715340bebbd1a8cad6cc","73.231.147.146","Mozilla/5.0 (Windows NT 10.0; Win64; x64) AppleWebKit/537.36 (KHTML, like Gecko) Chrome/131.0.0.0 Safari/537.36","WebKit","Chrome","131.0.0.0","Windows","10.0","https://app.prolific.com/","en,zh-CN;q=0.9,zh;q=0.8,ja;q=0.7,zh-TW;q=0.6","6500b3922f1493c553f2037f","67949641171f97c04e14fb34","0eyrvjnk9si","","360","<img id='selected' src='G_1.jpg' height='90'> <img id='selected' src='G_3.jpg' height='90'> <img src='G_4.jpg' height='90'> <img src='G_5.jpg' height='90'> <img src='G_6.jpg' height='90'> <img src='G_7.jpg' height='90'> <img src='G_8.jpg' height='90'> <img src='G_2.jpg' height='90'>","1","Learning example 1",""
"","","","","","html-button-response","117","173584","0.0-112.0","27","1","2025-01-25 07:48:20","ce241dad9188715340bebbd1a8cad6cc","73.231.147.146","Mozilla/5.0 (Windows NT 10.0; Win64; x64) AppleWebKit/537.36 (KHTML, like Gecko) Chrome/131.0.0.0 Safari/537.36","WebKit","Chrome","131.0.0.0","Windows","10.0","https://app.prolific.com/","en,zh-CN;q=0.9,zh;q=0.8,ja;q=0.7,zh-TW;q=0.6","6500b3922f1493c553f2037f","67949641171f97c04e14fb34","0eyrvjnk9si","","null","<img  src='G_1.jpg' height='90'> <img  src='G_3.jpg' height='90'> <img src='G_4.jpg' height='90'> <img src='G_5.jpg' height='90'> <img src='G_6.jpg' height='90'> <img src='G_7.jpg' height='90'> <img src='G_8.jpg' height='90'> <img src='G_2.jpg' height='90'>","null","Learning example 1",""
"","","","","","html-button-response","118","174006","0.0-113.0","27","1","2025-01-25 07:48:20","ce241dad9188715340bebbd1a8cad6cc","73.231.147.146","Mozilla/5.0 (Windows NT 10.0; Win64; x64) AppleWebKit/537.36 (KHTML, like Gecko) Chrome/131.0.0.0 Safari/537.36","WebKit","Chrome","131.0.0.0","Windows","10.0","https://app.prolific.com/","en,zh-CN;q=0.9,zh;q=0.8,ja;q=0.7,zh-TW;q=0.6","6500b3922f1493c553f2037f","67949641171f97c04e14fb34","0eyrvjnk9si","","null","<img  src='G_1.jpg' height='90'> <img id='selected'  src='G_3.jpg' height='90'> <img src='G_4.jpg' height='90'> <img src='G_5.jpg' height='90'> <img src='G_6.jpg' height='90'> <img src='G_7.jpg' height='90'> <img src='G_8.jpg' height='90'> <img src='G_2.jpg' height='90'>","null","Learning example 1",""
"","","","","","html-button-response","119","174317","0.0-114.0","27","1","2025-01-25 07:48:20","ce241dad9188715340bebbd1a8cad6cc","73.231.147.146","Mozilla/5.0 (Windows NT 10.0; Win64; x64) AppleWebKit/537.36 (KHTML, like Gecko) Chrome/131.0.0.0 Safari/537.36","WebKit","Chrome","131.0.0.0","Windows","10.0","https://app.prolific.com/","en,zh-CN;q=0.9,zh;q=0.8,ja;q=0.7,zh-TW;q=0.6","6500b3922f1493c553f2037f","67949641171f97c04e14fb34","0eyrvjnk9si","","null","<img  src='G_1.jpg' height='90'> <img id='selected'  src='G_3.jpg' height='90'> <img id='selected' src='G_4.jpg' height='90'> <img src='G_5.jpg' height='90'> <img src='G_6.jpg' height='90'> <img src='G_7.jpg' height='90'> <img src='G_8.jpg' height='90'> <img src='G_2.jpg' height='90'>","null","Learning example 1",""
"","","","","","html-button-response","120","174643","0.0-115.0","27","1","2025-01-25 07:48:20","ce241dad9188715340bebbd1a8cad6cc","73.231.147.146","Mozilla/5.0 (Windows NT 10.0; Win64; x64) AppleWebKit/537.36 (KHTML, like Gecko) Chrome/131.0.0.0 Safari/537.36","WebKit","Chrome","131.0.0.0","Windows","10.0","https://app.prolific.com/","en,zh-CN;q=0.9,zh;q=0.8,ja;q=0.7,zh-TW;q=0.6","6500b3922f1493c553f2037f","67949641171f97c04e14fb34","0eyrvjnk9si","","null","<img  src='G_1.jpg' height='90'> <img id='swapped' src='G_4.jpg' height='90'> <img id='swapped'  src='G_3.jpg' height='90'> <img src='G_5.jpg' height='90'> <img src='G_6.jpg' height='90'> <img src='G_7.jpg' height='90'> <img src='G_8.jpg' height='90'> <img src='G_2.jpg' height='90'>","null","Learning example 1",""
"","","","","","html-button-response","121","174828","0.0-116.0-0.0-0.0","27","1","2025-01-25 07:48:20","ce241dad9188715340bebbd1a8cad6cc","73.231.147.146","Mozilla/5.0 (Windows NT 10.0; Win64; x64) AppleWebKit/537.36 (KHTML, like Gecko) Chrome/131.0.0.0 Safari/537.36","WebKit","Chrome","131.0.0.0","Windows","10.0","https://app.prolific.com/","en,zh-CN;q=0.9,zh;q=0.8,ja;q=0.7,zh-TW;q=0.6","6500b3922f1493c553f2037f","67949641171f97c04e14fb34","0eyrvjnk9si","","176","<img  src='G_1.jpg' height='90'> <img id='swapped' src='G_4.jpg' height='90'> <img id='swapped'  src='G_3.jpg' height='90'> <img src='G_5.jpg' height='90'> <img src='G_6.jpg' height='90'> <img src='G_7.jpg' height='90'> <img src='G_8.jpg' height='90'> <img src='G_2.jpg' height='90'>","1","Learning example 1",""
"","","","","","html-button-response","122","175196","0.0-116.1-0.1-0.1","27","1","2025-01-25 07:48:20","ce241dad9188715340bebbd1a8cad6cc","73.231.147.146","Mozilla/5.0 (Windows NT 10.0; Win64; x64) AppleWebKit/537.36 (KHTML, like Gecko) Chrome/131.0.0.0 Safari/537.36","WebKit","Chrome","131.0.0.0","Windows","10.0","https://app.prolific.com/","en,zh-CN;q=0.9,zh;q=0.8,ja;q=0.7,zh-TW;q=0.6","6500b3922f1493c553f2037f","67949641171f97c04e14fb34","0eyrvjnk9si","","366","<img  src='G_1.jpg' height='90'> <img id='swapped' src='G_4.jpg' height='90'> <img id='swapped'  src='G_3.jpg' height='90'> <img src='G_5.jpg' height='90'> <img src='G_6.jpg' height='90'> <img src='G_7.jpg' height='90'> <img src='G_8.jpg' height='90'> <img src='G_2.jpg' height='90'>","2","Learning example 1",""
"","","","","","html-button-response","123","175408","0.0-117.0","27","1","2025-01-25 07:48:20","ce241dad9188715340bebbd1a8cad6cc","73.231.147.146","Mozilla/5.0 (Windows NT 10.0; Win64; x64) AppleWebKit/537.36 (KHTML, like Gecko) Chrome/131.0.0.0 Safari/537.36","WebKit","Chrome","131.0.0.0","Windows","10.0","https://app.prolific.com/","en,zh-CN;q=0.9,zh;q=0.8,ja;q=0.7,zh-TW;q=0.6","6500b3922f1493c553f2037f","67949641171f97c04e14fb34","0eyrvjnk9si","","null","<img  src='G_1.jpg' height='90'> <img  src='G_4.jpg' height='90'> <img   src='G_3.jpg' height='90'> <img src='G_5.jpg' height='90'> <img src='G_6.jpg' height='90'> <img src='G_7.jpg' height='90'> <img src='G_8.jpg' height='90'> <img src='G_2.jpg' height='90'>","null","Learning example 1",""
"","","","","","html-button-response","124","175828","0.0-118.0","27","1","2025-01-25 07:48:20","ce241dad9188715340bebbd1a8cad6cc","73.231.147.146","Mozilla/5.0 (Windows NT 10.0; Win64; x64) AppleWebKit/537.36 (KHTML, like Gecko) Chrome/131.0.0.0 Safari/537.36","WebKit","Chrome","131.0.0.0","Windows","10.0","https://app.prolific.com/","en,zh-CN;q=0.9,zh;q=0.8,ja;q=0.7,zh-TW;q=0.6","6500b3922f1493c553f2037f","67949641171f97c04e14fb34","0eyrvjnk9si","","null","<img id='selected'  src='G_1.jpg' height='90'> <img  src='G_4.jpg' height='90'> <img   src='G_3.jpg' height='90'> <img src='G_5.jpg' height='90'> <img src='G_6.jpg' height='90'> <img src='G_7.jpg' height='90'> <img src='G_8.jpg' height='90'> <img src='G_2.jpg' height='90'>","null","Learning example 1",""
"","","","","","html-button-response","125","176140","0.0-119.0","27","1","2025-01-25 07:48:20","ce241dad9188715340bebbd1a8cad6cc","73.231.147.146","Mozilla/5.0 (Windows NT 10.0; Win64; x64) AppleWebKit/537.36 (KHTML, like Gecko) Chrome/131.0.0.0 Safari/537.36","WebKit","Chrome","131.0.0.0","Windows","10.0","https://app.prolific.com/","en,zh-CN;q=0.9,zh;q=0.8,ja;q=0.7,zh-TW;q=0.6","6500b3922f1493c553f2037f","67949641171f97c04e14fb34","0eyrvjnk9si","","null","<img id='selected'  src='G_1.jpg' height='90'> <img id='selected'  src='G_4.jpg' height='90'> <img   src='G_3.jpg' height='90'> <img src='G_5.jpg' height='90'> <img src='G_6.jpg' height='90'> <img src='G_7.jpg' height='90'> <img src='G_8.jpg' height='90'> <img src='G_2.jpg' height='90'>","null","Learning example 1",""
"","","","","","html-button-response","126","176451","0.0-120.0","27","1","2025-01-25 07:48:20","ce241dad9188715340bebbd1a8cad6cc","73.231.147.146","Mozilla/5.0 (Windows NT 10.0; Win64; x64) AppleWebKit/537.36 (KHTML, like Gecko) Chrome/131.0.0.0 Safari/537.36","WebKit","Chrome","131.0.0.0","Windows","10.0","https://app.prolific.com/","en,zh-CN;q=0.9,zh;q=0.8,ja;q=0.7,zh-TW;q=0.6","6500b3922f1493c553f2037f","67949641171f97c04e14fb34","0eyrvjnk9si","","null","<img id='swapped'  src='G_4.jpg' height='90'> <img id='swapped'  src='G_1.jpg' height='90'> <img   src='G_3.jpg' height='90'> <img src='G_5.jpg' height='90'> <img src='G_6.jpg' height='90'> <img src='G_7.jpg' height='90'> <img src='G_8.jpg' height='90'> <img src='G_2.jpg' height='90'>","null","Learning example 1",""
"","","","","","html-button-response","127","176846","0.0-121.0-0.0-0.0","27","1","2025-01-25 07:48:20","ce241dad9188715340bebbd1a8cad6cc","73.231.147.146","Mozilla/5.0 (Windows NT 10.0; Win64; x64) AppleWebKit/537.36 (KHTML, like Gecko) Chrome/131.0.0.0 Safari/537.36","WebKit","Chrome","131.0.0.0","Windows","10.0","https://app.prolific.com/","en,zh-CN;q=0.9,zh;q=0.8,ja;q=0.7,zh-TW;q=0.6","6500b3922f1493c553f2037f","67949641171f97c04e14fb34","0eyrvjnk9si","","392","<img id='swapped'  src='G_4.jpg' height='90'> <img id='swapped'  src='G_1.jpg' height='90'> <img   src='G_3.jpg' height='90'> <img src='G_5.jpg' height='90'> <img src='G_6.jpg' height='90'> <img src='G_7.jpg' height='90'> <img src='G_8.jpg' height='90'> <img src='G_2.jpg' height='90'>","0","Learning example 1",""
"","","","","","html-button-response","128","177176","0.0-121.1-0.1-0.1","27","1","2025-01-25 07:48:20","ce241dad9188715340bebbd1a8cad6cc","73.231.147.146","Mozilla/5.0 (Windows NT 10.0; Win64; x64) AppleWebKit/537.36 (KHTML, like Gecko) Chrome/131.0.0.0 Safari/537.36","WebKit","Chrome","131.0.0.0","Windows","10.0","https://app.prolific.com/","en,zh-CN;q=0.9,zh;q=0.8,ja;q=0.7,zh-TW;q=0.6","6500b3922f1493c553f2037f","67949641171f97c04e14fb34","0eyrvjnk9si","","327","<img id='swapped'  src='G_4.jpg' height='90'> <img id='swapped'  src='G_1.jpg' height='90'> <img   src='G_3.jpg' height='90'> <img src='G_5.jpg' height='90'> <img src='G_6.jpg' height='90'> <img src='G_7.jpg' height='90'> <img src='G_8.jpg' height='90'> <img src='G_2.jpg' height='90'>","1","Learning example 1",""
"","","","","","html-button-response","129","177379","0.0-122.0","27","1","2025-01-25 07:48:20","ce241dad9188715340bebbd1a8cad6cc","73.231.147.146","Mozilla/5.0 (Windows NT 10.0; Win64; x64) AppleWebKit/537.36 (KHTML, like Gecko) Chrome/131.0.0.0 Safari/537.36","WebKit","Chrome","131.0.0.0","Windows","10.0","https://app.prolific.com/","en,zh-CN;q=0.9,zh;q=0.8,ja;q=0.7,zh-TW;q=0.6","6500b3922f1493c553f2037f","67949641171f97c04e14fb34","0eyrvjnk9si","","null","<img   src='G_4.jpg' height='90'> <img   src='G_1.jpg' height='90'> <img   src='G_3.jpg' height='90'> <img src='G_5.jpg' height='90'> <img src='G_6.jpg' height='90'> <img src='G_7.jpg' height='90'> <img src='G_8.jpg' height='90'> <img src='G_2.jpg' height='90'>","null","Learning example 1",""
"","","","","","html-button-response","130","177798","0.0-123.0","27","1","2025-01-25 07:48:20","ce241dad9188715340bebbd1a8cad6cc","73.231.147.146","Mozilla/5.0 (Windows NT 10.0; Win64; x64) AppleWebKit/537.36 (KHTML, like Gecko) Chrome/131.0.0.0 Safari/537.36","WebKit","Chrome","131.0.0.0","Windows","10.0","https://app.prolific.com/","en,zh-CN;q=0.9,zh;q=0.8,ja;q=0.7,zh-TW;q=0.6","6500b3922f1493c553f2037f","67949641171f97c04e14fb34","0eyrvjnk9si","","null","<img   src='G_4.jpg' height='90'> <img   src='G_1.jpg' height='90'> <img id='selected'   src='G_3.jpg' height='90'> <img src='G_5.jpg' height='90'> <img src='G_6.jpg' height='90'> <img src='G_7.jpg' height='90'> <img src='G_8.jpg' height='90'> <img src='G_2.jpg' height='90'>","null","Learning example 1",""
"","","","","","html-button-response","131","178105","0.0-124.0","27","1","2025-01-25 07:48:20","ce241dad9188715340bebbd1a8cad6cc","73.231.147.146","Mozilla/5.0 (Windows NT 10.0; Win64; x64) AppleWebKit/537.36 (KHTML, like Gecko) Chrome/131.0.0.0 Safari/537.36","WebKit","Chrome","131.0.0.0","Windows","10.0","https://app.prolific.com/","en,zh-CN;q=0.9,zh;q=0.8,ja;q=0.7,zh-TW;q=0.6","6500b3922f1493c553f2037f","67949641171f97c04e14fb34","0eyrvjnk9si","","null","<img   src='G_4.jpg' height='90'> <img   src='G_1.jpg' height='90'> <img id='selected'   src='G_3.jpg' height='90'> <img id='selected' src='G_5.jpg' height='90'> <img src='G_6.jpg' height='90'> <img src='G_7.jpg' height='90'> <img src='G_8.jpg' height='90'> <img src='G_2.jpg' height='90'>","null","Learning example 1",""
"","","","","","html-button-response","132","178415","0.0-125.0","27","1","2025-01-25 07:48:20","ce241dad9188715340bebbd1a8cad6cc","73.231.147.146","Mozilla/5.0 (Windows NT 10.0; Win64; x64) AppleWebKit/537.36 (KHTML, like Gecko) Chrome/131.0.0.0 Safari/537.36","WebKit","Chrome","131.0.0.0","Windows","10.0","https://app.prolific.com/","en,zh-CN;q=0.9,zh;q=0.8,ja;q=0.7,zh-TW;q=0.6","6500b3922f1493c553f2037f","67949641171f97c04e14fb34","0eyrvjnk9si","","null","<img   src='G_4.jpg' height='90'> <img   src='G_1.jpg' height='90'> <img id='swapped' src='G_5.jpg' height='90'> <img id='swapped'   src='G_3.jpg' height='90'> <img src='G_6.jpg' height='90'> <img src='G_7.jpg' height='90'> <img src='G_8.jpg' height='90'> <img src='G_2.jpg' height='90'>","null","Learning example 1",""
"","","","","","html-button-response","133","178800","0.0-126.0-0.0-0.0","27","1","2025-01-25 07:48:20","ce241dad9188715340bebbd1a8cad6cc","73.231.147.146","Mozilla/5.0 (Windows NT 10.0; Win64; x64) AppleWebKit/537.36 (KHTML, like Gecko) Chrome/131.0.0.0 Safari/537.36","WebKit","Chrome","131.0.0.0","Windows","10.0","https://app.prolific.com/","en,zh-CN;q=0.9,zh;q=0.8,ja;q=0.7,zh-TW;q=0.6","6500b3922f1493c553f2037f","67949641171f97c04e14fb34","0eyrvjnk9si","","373","<img   src='G_4.jpg' height='90'> <img   src='G_1.jpg' height='90'> <img id='swapped' src='G_5.jpg' height='90'> <img id='swapped'   src='G_3.jpg' height='90'> <img src='G_6.jpg' height='90'> <img src='G_7.jpg' height='90'> <img src='G_8.jpg' height='90'> <img src='G_2.jpg' height='90'>","2","Learning example 1",""
"","","","","","html-button-response","134","179170","0.0-126.1-0.1-0.1","27","1","2025-01-25 07:48:20","ce241dad9188715340bebbd1a8cad6cc","73.231.147.146","Mozilla/5.0 (Windows NT 10.0; Win64; x64) AppleWebKit/537.36 (KHTML, like Gecko) Chrome/131.0.0.0 Safari/537.36","WebKit","Chrome","131.0.0.0","Windows","10.0","https://app.prolific.com/","en,zh-CN;q=0.9,zh;q=0.8,ja;q=0.7,zh-TW;q=0.6","6500b3922f1493c553f2037f","67949641171f97c04e14fb34","0eyrvjnk9si","","368","<img   src='G_4.jpg' height='90'> <img   src='G_1.jpg' height='90'> <img id='swapped' src='G_5.jpg' height='90'> <img id='swapped'   src='G_3.jpg' height='90'> <img src='G_6.jpg' height='90'> <img src='G_7.jpg' height='90'> <img src='G_8.jpg' height='90'> <img src='G_2.jpg' height='90'>","3","Learning example 1",""
"","","","","","html-button-response","135","179385","0.0-127.0","27","1","2025-01-25 07:48:20","ce241dad9188715340bebbd1a8cad6cc","73.231.147.146","Mozilla/5.0 (Windows NT 10.0; Win64; x64) AppleWebKit/537.36 (KHTML, like Gecko) Chrome/131.0.0.0 Safari/537.36","WebKit","Chrome","131.0.0.0","Windows","10.0","https://app.prolific.com/","en,zh-CN;q=0.9,zh;q=0.8,ja;q=0.7,zh-TW;q=0.6","6500b3922f1493c553f2037f","67949641171f97c04e14fb34","0eyrvjnk9si","","null","<img   src='G_4.jpg' height='90'> <img   src='G_1.jpg' height='90'> <img  src='G_5.jpg' height='90'> <img    src='G_3.jpg' height='90'> <img src='G_6.jpg' height='90'> <img src='G_7.jpg' height='90'> <img src='G_8.jpg' height='90'> <img src='G_2.jpg' height='90'>","null","Learning example 1",""
