"success","timeout","failed_images","failed_audio","failed_video","trial_type","trial_index","time_elapsed","internal_node_id","run_id","condition","recorded_at","source_code_version","ip","user_agent","device","browser","browser_version","platform","platform_version","referer","accept_language","PROLIFIC_PID","STUDY_ID","SESSION_ID","view_history","rt","stimulus","response","phase","question_order"
"true","false","[]","[]","[]","preload","0","17","0.0-0.0","29","1","2025-01-25 08:13:13","af8d355d56820e421d246a7037deb6e6","73.231.147.146","Mozilla/5.0 (Windows NT 10.0; Win64; x64) AppleWebKit/537.36 (KHTML, like Gecko) Chrome/131.0.0.0 Safari/537.36","WebKit","Chrome","131.0.0.0","Windows","10.0","https://app.prolific.com/","en,zh-CN;q=0.9,zh;q=0.8,ja;q=0.7,zh-TW;q=0.6","6500b3922f1493c553f2037f","67949641171f97c04e14fb34","0eyrvjnk9si","","","","","",""
"","","","","","instructions","1","2213","0.0-1.0","29","1","2025-01-25 08:13:13","af8d355d56820e421d246a7037deb6e6","73.231.147.146","Mozilla/5.0 (Windows NT 10.0; Win64; x64) AppleWebKit/537.36 (KHTML, like Gecko) Chrome/131.0.0.0 Safari/537.36","WebKit","Chrome","131.0.0.0","Windows","10.0","https://app.prolific.com/","en,zh-CN;q=0.9,zh;q=0.8,ja;q=0.7,zh-TW;q=0.6","6500b3922f1493c553f2037f","67949641171f97c04e14fb34","0eyrvjnk9si","[{""page_index"":0,""viewing_time"":2194}]","2194","","","",""
"","","","","","html-keyboard-response","2","2729","0.0-2.0","29","1","2025-01-25 08:13:13","af8d355d56820e421d246a7037deb6e6","73.231.147.146","Mozilla/5.0 (Windows NT 10.0; Win64; x64) AppleWebKit/537.36 (KHTML, like Gecko) Chrome/131.0.0.0 Safari/537.36","WebKit","Chrome","131.0.0.0","Windows","10.0","https://app.prolific.com/","en,zh-CN;q=0.9,zh;q=0.8,ja;q=0.7,zh-TW;q=0.6","6500b3922f1493c553f2037f","67949641171f97c04e14fb34","0eyrvjnk9si","","null","<p> + <p/>","null","",""
"","","","","","instructions","3","4526","0.0-3.0","29","1","2025-01-25 08:13:13","af8d355d56820e421d246a7037deb6e6","73.231.147.146","Mozilla/5.0 (Windows NT 10.0; Win64; x64) AppleWebKit/537.36 (KHTML, like Gecko) Chrome/131.0.0.0 Safari/537.36","WebKit","Chrome","131.0.0.0","Windows","10.0","https://app.prolific.com/","en,zh-CN;q=0.9,zh;q=0.8,ja;q=0.7,zh-TW;q=0.6","6500b3922f1493c553f2037f","67949641171f97c04e14fb34","0eyrvjnk9si","[{""page_index"":0,""viewing_time"":630},{""page_index"":1,""viewing_time"":461},{""page_index"":2,""viewing_time"":234},{""page_index"":3,""viewing_time"":229},{""page_index"":4,""viewing_time"":242}]","1796","","","",""
"","","","","","html-button-response","4","5330","0.0-4.0-0.0-0.0","29","1","2025-01-25 08:13:13","af8d355d56820e421d246a7037deb6e6","73.231.147.146","Mozilla/5.0 (Windows NT 10.0; Win64; x64) AppleWebKit/537.36 (KHTML, like Gecko) Chrome/131.0.0.0 Safari/537.36","WebKit","Chrome","131.0.0.0","Windows","10.0","https://app.prolific.com/","en,zh-CN;q=0.9,zh;q=0.8,ja;q=0.7,zh-TW;q=0.6","6500b3922f1493c553f2037f","67949641171f97c04e14fb34","0eyrvjnk9si","","802","","5","Intro Trial",""
"","","","","","html-keyboard-response","5","5695","0.0-5.0","29","1","2025-01-25 08:13:13","af8d355d56820e421d246a7037deb6e6","73.231.147.146","Mozilla/5.0 (Windows NT 10.0; Win64; x64) AppleWebKit/537.36 (KHTML, like Gecko) Chrome/131.0.0.0 Safari/537.36","WebKit","Chrome","131.0.0.0","Windows","10.0","https://app.prolific.com/","en,zh-CN;q=0.9,zh;q=0.8,ja;q=0.7,zh-TW;q=0.6","6500b3922f1493c553f2037f","67949641171f97c04e14fb34","0eyrvjnk9si","","363","[""You sorted incorrectly by using the balance 0 times. <br><br> <img src='G_1.jpg' height='90'><img src='G_2.jpg' height='90'><img src='G_3.jpg' height='90'><img src='G_4.jpg' height='90'><img src='G_5.jpg' height='90'><br><br> Your final order is 4,2,3,5,1<br><br><br>Omgne Sort in this game will allow you to sort correctly by using the balance 8 times. Press Enter to learn it!""]","enter","",""
"","","","","","html-keyboard-response","6","6240","0.0-6.0","29","1","2025-01-25 08:13:13","af8d355d56820e421d246a7037deb6e6","73.231.147.146","Mozilla/5.0 (Windows NT 10.0; Win64; x64) AppleWebKit/537.36 (KHTML, like Gecko) Chrome/131.0.0.0 Safari/537.36","WebKit","Chrome","131.0.0.0","Windows","10.0","https://app.prolific.com/","en,zh-CN;q=0.9,zh;q=0.8,ja;q=0.7,zh-TW;q=0.6","6500b3922f1493c553f2037f","67949641171f97c04e14fb34","0eyrvjnk9si","","543","<p>Welcome to the learning phase! <br><br> You will learn by six examples. The following learning trials will not be used to calculate your performance. <br><br> Press Enter to continue.<p/>","enter","",""
"","","","","","html-keyboard-response","7","6980","0.0-7.0","29","1","2025-01-25 08:13:13","af8d355d56820e421d246a7037deb6e6","73.231.147.146","Mozilla/5.0 (Windows NT 10.0; Win64; x64) AppleWebKit/537.36 (KHTML, like Gecko) Chrome/131.0.0.0 Safari/537.36","WebKit","Chrome","131.0.0.0","Windows","10.0","https://app.prolific.com/","en,zh-CN;q=0.9,zh;q=0.8,ja;q=0.7,zh-TW;q=0.6","6500b3922f1493c553f2037f","67949641171f97c04e14fb34","0eyrvjnk9si","","738","[""Example 1<br><br>You will watch Omnge Sort in action. Try to identify any patterns in the comparisons made by this method. <br><br>Press Enter to continue.""]","enter","",""
"","","","","","html-keyboard-response","8","7497","0.0-8.0","29","1","2025-01-25 08:13:13","af8d355d56820e421d246a7037deb6e6","73.231.147.146","Mozilla/5.0 (Windows NT 10.0; Win64; x64) AppleWebKit/537.36 (KHTML, like Gecko) Chrome/131.0.0.0 Safari/537.36","WebKit","Chrome","131.0.0.0","Windows","10.0","https://app.prolific.com/","en,zh-CN;q=0.9,zh;q=0.8,ja;q=0.7,zh-TW;q=0.6","6500b3922f1493c553f2037f","67949641171f97c04e14fb34","0eyrvjnk9si","","null","<img id='selected' src='G_7.jpg' height='90'> <img src='G_1.jpg' height='90'> <img src='G_3.jpg' height='90'> <img src='G_9.jpg' height='90'> <img src='G_5.jpg' height='90'>","null","Animation0",""
"","","","","","html-keyboard-response","9","8001","0.0-9.0","29","1","2025-01-25 08:13:13","af8d355d56820e421d246a7037deb6e6","73.231.147.146","Mozilla/5.0 (Windows NT 10.0; Win64; x64) AppleWebKit/537.36 (KHTML, like Gecko) Chrome/131.0.0.0 Safari/537.36","WebKit","Chrome","131.0.0.0","Windows","10.0","https://app.prolific.com/","en,zh-CN;q=0.9,zh;q=0.8,ja;q=0.7,zh-TW;q=0.6","6500b3922f1493c553f2037f","67949641171f97c04e14fb34","0eyrvjnk9si","","null","<img id='selected' src='G_7.jpg' height='90'> <img id='selected' src='G_1.jpg' height='90'> <img src='G_3.jpg' height='90'> <img src='G_9.jpg' height='90'> <img src='G_5.jpg' height='90'>","null","Animation0",""
"","","","","","html-keyboard-response","10","8511","0.0-10.0","29","1","2025-01-25 08:13:13","af8d355d56820e421d246a7037deb6e6","73.231.147.146","Mozilla/5.0 (Windows NT 10.0; Win64; x64) AppleWebKit/537.36 (KHTML, like Gecko) Chrome/131.0.0.0 Safari/537.36","WebKit","Chrome","131.0.0.0","Windows","10.0","https://app.prolific.com/","en,zh-CN;q=0.9,zh;q=0.8,ja;q=0.7,zh-TW;q=0.6","6500b3922f1493c553f2037f","67949641171f97c04e14fb34","0eyrvjnk9si","","null","<img id='swapped' src='G_1.jpg' height='90'> <img id='swapped' src='G_7.jpg' height='90'> <img src='G_3.jpg' height='90'> <img src='G_9.jpg' height='90'> <img src='G_5.jpg' height='90'>","null","Animation0",""
"","","","","","html-keyboard-response","11","8821","0.0-11.0","29","1","2025-01-25 08:13:13","af8d355d56820e421d246a7037deb6e6","73.231.147.146","Mozilla/5.0 (Windows NT 10.0; Win64; x64) AppleWebKit/537.36 (KHTML, like Gecko) Chrome/131.0.0.0 Safari/537.36","WebKit","Chrome","131.0.0.0","Windows","10.0","https://app.prolific.com/","en,zh-CN;q=0.9,zh;q=0.8,ja;q=0.7,zh-TW;q=0.6","6500b3922f1493c553f2037f","67949641171f97c04e14fb34","0eyrvjnk9si","","null","<img  src='G_1.jpg' height='90'> <img  src='G_7.jpg' height='90'> <img src='G_3.jpg' height='90'> <img src='G_9.jpg' height='90'> <img src='G_5.jpg' height='90'>","null","Animation0",""
"","","","","","html-keyboard-response","12","9334","0.0-12.0","29","1","2025-01-25 08:13:13","af8d355d56820e421d246a7037deb6e6","73.231.147.146","Mozilla/5.0 (Windows NT 10.0; Win64; x64) AppleWebKit/537.36 (KHTML, like Gecko) Chrome/131.0.0.0 Safari/537.36","WebKit","Chrome","131.0.0.0","Windows","10.0","https://app.prolific.com/","en,zh-CN;q=0.9,zh;q=0.8,ja;q=0.7,zh-TW;q=0.6","6500b3922f1493c553f2037f","67949641171f97c04e14fb34","0eyrvjnk9si","","null","<img  src='G_1.jpg' height='90'> <img id='selected'  src='G_7.jpg' height='90'> <img src='G_3.jpg' height='90'> <img src='G_9.jpg' height='90'> <img src='G_5.jpg' height='90'>","null","Animation0",""
"","","","","","html-keyboard-response","13","9847","0.0-13.0","29","1","2025-01-25 08:13:13","af8d355d56820e421d246a7037deb6e6","73.231.147.146","Mozilla/5.0 (Windows NT 10.0; Win64; x64) AppleWebKit/537.36 (KHTML, like Gecko) Chrome/131.0.0.0 Safari/537.36","WebKit","Chrome","131.0.0.0","Windows","10.0","https://app.prolific.com/","en,zh-CN;q=0.9,zh;q=0.8,ja;q=0.7,zh-TW;q=0.6","6500b3922f1493c553f2037f","67949641171f97c04e14fb34","0eyrvjnk9si","","null","<img  src='G_1.jpg' height='90'> <img id='selected'  src='G_7.jpg' height='90'> <img id='selected' src='G_3.jpg' height='90'> <img src='G_9.jpg' height='90'> <img src='G_5.jpg' height='90'>","null","Animation0",""
"","","","","","html-keyboard-response","14","10362","0.0-14.0","29","1","2025-01-25 08:13:13","af8d355d56820e421d246a7037deb6e6","73.231.147.146","Mozilla/5.0 (Windows NT 10.0; Win64; x64) AppleWebKit/537.36 (KHTML, like Gecko) Chrome/131.0.0.0 Safari/537.36","WebKit","Chrome","131.0.0.0","Windows","10.0","https://app.prolific.com/","en,zh-CN;q=0.9,zh;q=0.8,ja;q=0.7,zh-TW;q=0.6","6500b3922f1493c553f2037f","67949641171f97c04e14fb34","0eyrvjnk9si","","null","<img  src='G_1.jpg' height='90'> <img id='selected'  src='G_7.jpg' height='90'> <img id='selected' src='G_3.jpg' height='90'> <img src='G_9.jpg' height='90'> <img src='G_5.jpg' height='90'>","null","Animation0",""
"","","","","","html-keyboard-response","15","10674","0.0-15.0","29","1","2025-01-25 08:13:13","af8d355d56820e421d246a7037deb6e6","73.231.147.146","Mozilla/5.0 (Windows NT 10.0; Win64; x64) AppleWebKit/537.36 (KHTML, like Gecko) Chrome/131.0.0.0 Safari/537.36","WebKit","Chrome","131.0.0.0","Windows","10.0","https://app.prolific.com/","en,zh-CN;q=0.9,zh;q=0.8,ja;q=0.7,zh-TW;q=0.6","6500b3922f1493c553f2037f","67949641171f97c04e14fb34","0eyrvjnk9si","","null","<img  src='G_1.jpg' height='90'> <img   src='G_7.jpg' height='90'> <img  src='G_3.jpg' height='90'> <img src='G_9.jpg' height='90'> <img src='G_5.jpg' height='90'>","null","Animation0",""
"","","","","","html-keyboard-response","16","11177","0.0-16.0","29","1","2025-01-25 08:13:13","af8d355d56820e421d246a7037deb6e6","73.231.147.146","Mozilla/5.0 (Windows NT 10.0; Win64; x64) AppleWebKit/537.36 (KHTML, like Gecko) Chrome/131.0.0.0 Safari/537.36","WebKit","Chrome","131.0.0.0","Windows","10.0","https://app.prolific.com/","en,zh-CN;q=0.9,zh;q=0.8,ja;q=0.7,zh-TW;q=0.6","6500b3922f1493c553f2037f","67949641171f97c04e14fb34","0eyrvjnk9si","","null","<img  src='G_1.jpg' height='90'> <img   src='G_7.jpg' height='90'> <img id='selected'  src='G_3.jpg' height='90'> <img src='G_9.jpg' height='90'> <img src='G_5.jpg' height='90'>","null","Animation0",""
"","","","","","html-keyboard-response","17","11678","0.0-17.0","29","1","2025-01-25 08:13:13","af8d355d56820e421d246a7037deb6e6","73.231.147.146","Mozilla/5.0 (Windows NT 10.0; Win64; x64) AppleWebKit/537.36 (KHTML, like Gecko) Chrome/131.0.0.0 Safari/537.36","WebKit","Chrome","131.0.0.0","Windows","10.0","https://app.prolific.com/","en,zh-CN;q=0.9,zh;q=0.8,ja;q=0.7,zh-TW;q=0.6","6500b3922f1493c553f2037f","67949641171f97c04e14fb34","0eyrvjnk9si","","null","<img  src='G_1.jpg' height='90'> <img   src='G_7.jpg' height='90'> <img id='selected'  src='G_3.jpg' height='90'> <img id='selected' src='G_9.jpg' height='90'> <img src='G_5.jpg' height='90'>","null","Animation0",""
"","","","","","html-keyboard-response","18","12188","0.0-18.0","29","1","2025-01-25 08:13:13","af8d355d56820e421d246a7037deb6e6","73.231.147.146","Mozilla/5.0 (Windows NT 10.0; Win64; x64) AppleWebKit/537.36 (KHTML, like Gecko) Chrome/131.0.0.0 Safari/537.36","WebKit","Chrome","131.0.0.0","Windows","10.0","https://app.prolific.com/","en,zh-CN;q=0.9,zh;q=0.8,ja;q=0.7,zh-TW;q=0.6","6500b3922f1493c553f2037f","67949641171f97c04e14fb34","0eyrvjnk9si","","null","<img  src='G_1.jpg' height='90'> <img   src='G_7.jpg' height='90'> <img id='selected'  src='G_3.jpg' height='90'> <img id='selected' src='G_9.jpg' height='90'> <img src='G_5.jpg' height='90'>","null","Animation0",""
"","","","","","html-keyboard-response","19","12491","0.0-19.0","29","1","2025-01-25 08:13:13","af8d355d56820e421d246a7037deb6e6","73.231.147.146","Mozilla/5.0 (Windows NT 10.0; Win64; x64) AppleWebKit/537.36 (KHTML, like Gecko) Chrome/131.0.0.0 Safari/537.36","WebKit","Chrome","131.0.0.0","Windows","10.0","https://app.prolific.com/","en,zh-CN;q=0.9,zh;q=0.8,ja;q=0.7,zh-TW;q=0.6","6500b3922f1493c553f2037f","67949641171f97c04e14fb34","0eyrvjnk9si","","null","<img  src='G_1.jpg' height='90'> <img   src='G_7.jpg' height='90'> <img   src='G_3.jpg' height='90'> <img  src='G_9.jpg' height='90'> <img src='G_5.jpg' height='90'>","null","Animation0",""
"","","","","","html-keyboard-response","20","13001","0.0-20.0","29","1","2025-01-25 08:13:13","af8d355d56820e421d246a7037deb6e6","73.231.147.146","Mozilla/5.0 (Windows NT 10.0; Win64; x64) AppleWebKit/537.36 (KHTML, like Gecko) Chrome/131.0.0.0 Safari/537.36","WebKit","Chrome","131.0.0.0","Windows","10.0","https://app.prolific.com/","en,zh-CN;q=0.9,zh;q=0.8,ja;q=0.7,zh-TW;q=0.6","6500b3922f1493c553f2037f","67949641171f97c04e14fb34","0eyrvjnk9si","","null","<img  src='G_1.jpg' height='90'> <img   src='G_7.jpg' height='90'> <img   src='G_3.jpg' height='90'> <img id='selected'  src='G_9.jpg' height='90'> <img src='G_5.jpg' height='90'>","null","Animation0",""
"","","","","","html-keyboard-response","21","13517","0.0-21.0","29","1","2025-01-25 08:13:13","af8d355d56820e421d246a7037deb6e6","73.231.147.146","Mozilla/5.0 (Windows NT 10.0; Win64; x64) AppleWebKit/537.36 (KHTML, like Gecko) Chrome/131.0.0.0 Safari/537.36","WebKit","Chrome","131.0.0.0","Windows","10.0","https://app.prolific.com/","en,zh-CN;q=0.9,zh;q=0.8,ja;q=0.7,zh-TW;q=0.6","6500b3922f1493c553f2037f","67949641171f97c04e14fb34","0eyrvjnk9si","","null","<img  src='G_1.jpg' height='90'> <img   src='G_7.jpg' height='90'> <img   src='G_3.jpg' height='90'> <img id='selected'  src='G_9.jpg' height='90'> <img id='selected' src='G_5.jpg' height='90'>","null","Animation0",""
"","","","","","html-keyboard-response","22","14034","0.0-22.0","29","1","2025-01-25 08:13:13","af8d355d56820e421d246a7037deb6e6","73.231.147.146","Mozilla/5.0 (Windows NT 10.0; Win64; x64) AppleWebKit/537.36 (KHTML, like Gecko) Chrome/131.0.0.0 Safari/537.36","WebKit","Chrome","131.0.0.0","Windows","10.0","https://app.prolific.com/","en,zh-CN;q=0.9,zh;q=0.8,ja;q=0.7,zh-TW;q=0.6","6500b3922f1493c553f2037f","67949641171f97c04e14fb34","0eyrvjnk9si","","null","<img  src='G_1.jpg' height='90'> <img   src='G_7.jpg' height='90'> <img   src='G_3.jpg' height='90'> <img id='selected'  src='G_9.jpg' height='90'> <img id='selected' src='G_5.jpg' height='90'>","null","Animation0",""
"","","","","","html-keyboard-response","23","14339","0.0-23.0","29","1","2025-01-25 08:13:13","af8d355d56820e421d246a7037deb6e6","73.231.147.146","Mozilla/5.0 (Windows NT 10.0; Win64; x64) AppleWebKit/537.36 (KHTML, like Gecko) Chrome/131.0.0.0 Safari/537.36","WebKit","Chrome","131.0.0.0","Windows","10.0","https://app.prolific.com/","en,zh-CN;q=0.9,zh;q=0.8,ja;q=0.7,zh-TW;q=0.6","6500b3922f1493c553f2037f","67949641171f97c04e14fb34","0eyrvjnk9si","","null","<img  src='G_1.jpg' height='90'> <img   src='G_7.jpg' height='90'> <img   src='G_3.jpg' height='90'> <img   src='G_9.jpg' height='90'> <img  src='G_5.jpg' height='90'>","null","Animation0",""
"","","","","","html-keyboard-response","24","15263","0.0-24.0","29","1","2025-01-25 08:13:13","af8d355d56820e421d246a7037deb6e6","73.231.147.146","Mozilla/5.0 (Windows NT 10.0; Win64; x64) AppleWebKit/537.36 (KHTML, like Gecko) Chrome/131.0.0.0 Safari/537.36","WebKit","Chrome","131.0.0.0","Windows","10.0","https://app.prolific.com/","en,zh-CN;q=0.9,zh;q=0.8,ja;q=0.7,zh-TW;q=0.6","6500b3922f1493c553f2037f","67949641171f97c04e14fb34","0eyrvjnk9si","","922","[""Did you notice any patterns? <br><br>Press Enter to watch that example again and follow the steps of Omgne Sort.""]","enter","",""
"","","","","","html-button-response","25","15675","0.0-25.0","29","1","2025-01-25 08:13:13","af8d355d56820e421d246a7037deb6e6","73.231.147.146","Mozilla/5.0 (Windows NT 10.0; Win64; x64) AppleWebKit/537.36 (KHTML, like Gecko) Chrome/131.0.0.0 Safari/537.36","WebKit","Chrome","131.0.0.0","Windows","10.0","https://app.prolific.com/","en,zh-CN;q=0.9,zh;q=0.8,ja;q=0.7,zh-TW;q=0.6","6500b3922f1493c553f2037f","67949641171f97c04e14fb34","0eyrvjnk9si","","null","<img id='selected' src='G_7.jpg' height='90'> <img src='G_1.jpg' height='90'> <img src='G_3.jpg' height='90'> <img src='G_9.jpg' height='90'> <img src='G_5.jpg' height='90'>","null","Learning example 0",""
"","","","","","html-button-response","26","15981","0.0-26.0","29","1","2025-01-25 08:13:13","af8d355d56820e421d246a7037deb6e6","73.231.147.146","Mozilla/5.0 (Windows NT 10.0; Win64; x64) AppleWebKit/537.36 (KHTML, like Gecko) Chrome/131.0.0.0 Safari/537.36","WebKit","Chrome","131.0.0.0","Windows","10.0","https://app.prolific.com/","en,zh-CN;q=0.9,zh;q=0.8,ja;q=0.7,zh-TW;q=0.6","6500b3922f1493c553f2037f","67949641171f97c04e14fb34","0eyrvjnk9si","","null","<img id='selected' src='G_7.jpg' height='90'> <img id='selected' src='G_1.jpg' height='90'> <img src='G_3.jpg' height='90'> <img src='G_9.jpg' height='90'> <img src='G_5.jpg' height='90'>","null","Learning example 0",""
"","","","","","html-button-response","27","16287","0.0-27.0","29","1","2025-01-25 08:13:13","af8d355d56820e421d246a7037deb6e6","73.231.147.146","Mozilla/5.0 (Windows NT 10.0; Win64; x64) AppleWebKit/537.36 (KHTML, like Gecko) Chrome/131.0.0.0 Safari/537.36","WebKit","Chrome","131.0.0.0","Windows","10.0","https://app.prolific.com/","en,zh-CN;q=0.9,zh;q=0.8,ja;q=0.7,zh-TW;q=0.6","6500b3922f1493c553f2037f","67949641171f97c04e14fb34","0eyrvjnk9si","","null","<img id='swapped' src='G_1.jpg' height='90'> <img id='swapped' src='G_7.jpg' height='90'> <img src='G_3.jpg' height='90'> <img src='G_9.jpg' height='90'> <img src='G_5.jpg' height='90'>","null","Learning example 0",""
"","","","","","html-button-response","28","16680","0.0-28.0-0.0-0.0","29","1","2025-01-25 08:13:13","af8d355d56820e421d246a7037deb6e6","73.231.147.146","Mozilla/5.0 (Windows NT 10.0; Win64; x64) AppleWebKit/537.36 (KHTML, like Gecko) Chrome/131.0.0.0 Safari/537.36","WebKit","Chrome","131.0.0.0","Windows","10.0","https://app.prolific.com/","en,zh-CN;q=0.9,zh;q=0.8,ja;q=0.7,zh-TW;q=0.6","6500b3922f1493c553f2037f","67949641171f97c04e14fb34","0eyrvjnk9si","","388","<img id='swapped' src='G_1.jpg' height='90'> <img id='swapped' src='G_7.jpg' height='90'> <img src='G_3.jpg' height='90'> <img src='G_9.jpg' height='90'> <img src='G_5.jpg' height='90'>","0","Learning example 0",""
"","","","","","html-button-response","29","16986","0.0-28.1-0.1-0.1","29","1","2025-01-25 08:13:13","af8d355d56820e421d246a7037deb6e6","73.231.147.146","Mozilla/5.0 (Windows NT 10.0; Win64; x64) AppleWebKit/537.36 (KHTML, like Gecko) Chrome/131.0.0.0 Safari/537.36","WebKit","Chrome","131.0.0.0","Windows","10.0","https://app.prolific.com/","en,zh-CN;q=0.9,zh;q=0.8,ja;q=0.7,zh-TW;q=0.6","6500b3922f1493c553f2037f","67949641171f97c04e14fb34","0eyrvjnk9si","","304","<img id='swapped' src='G_1.jpg' height='90'> <img id='swapped' src='G_7.jpg' height='90'> <img src='G_3.jpg' height='90'> <img src='G_9.jpg' height='90'> <img src='G_5.jpg' height='90'>","1","Learning example 0",""
"","","","","","html-button-response","30","17188","0.0-29.0","29","1","2025-01-25 08:13:13","af8d355d56820e421d246a7037deb6e6","73.231.147.146","Mozilla/5.0 (Windows NT 10.0; Win64; x64) AppleWebKit/537.36 (KHTML, like Gecko) Chrome/131.0.0.0 Safari/537.36","WebKit","Chrome","131.0.0.0","Windows","10.0","https://app.prolific.com/","en,zh-CN;q=0.9,zh;q=0.8,ja;q=0.7,zh-TW;q=0.6","6500b3922f1493c553f2037f","67949641171f97c04e14fb34","0eyrvjnk9si","","null","<img  src='G_1.jpg' height='90'> <img  src='G_7.jpg' height='90'> <img src='G_3.jpg' height='90'> <img src='G_9.jpg' height='90'> <img src='G_5.jpg' height='90'>","null","Learning example 0",""
"","","","","","html-button-response","31","17597","0.0-30.0","29","1","2025-01-25 08:13:13","af8d355d56820e421d246a7037deb6e6","73.231.147.146","Mozilla/5.0 (Windows NT 10.0; Win64; x64) AppleWebKit/537.36 (KHTML, like Gecko) Chrome/131.0.0.0 Safari/537.36","WebKit","Chrome","131.0.0.0","Windows","10.0","https://app.prolific.com/","en,zh-CN;q=0.9,zh;q=0.8,ja;q=0.7,zh-TW;q=0.6","6500b3922f1493c553f2037f","67949641171f97c04e14fb34","0eyrvjnk9si","","null","<img  src='G_1.jpg' height='90'> <img id='selected'  src='G_7.jpg' height='90'> <img src='G_3.jpg' height='90'> <img src='G_9.jpg' height='90'> <img src='G_5.jpg' height='90'>","null","Learning example 0",""
"","","","","","html-button-response","32","17907","0.0-31.0","29","1","2025-01-25 08:13:13","af8d355d56820e421d246a7037deb6e6","73.231.147.146","Mozilla/5.0 (Windows NT 10.0; Win64; x64) AppleWebKit/537.36 (KHTML, like Gecko) Chrome/131.0.0.0 Safari/537.36","WebKit","Chrome","131.0.0.0","Windows","10.0","https://app.prolific.com/","en,zh-CN;q=0.9,zh;q=0.8,ja;q=0.7,zh-TW;q=0.6","6500b3922f1493c553f2037f","67949641171f97c04e14fb34","0eyrvjnk9si","","null","<img  src='G_1.jpg' height='90'> <img id='selected'  src='G_7.jpg' height='90'> <img id='selected' src='G_3.jpg' height='90'> <img src='G_9.jpg' height='90'> <img src='G_5.jpg' height='90'>","null","Learning example 0",""
"","","","","","html-button-response","33","18219","0.0-32.0","29","1","2025-01-25 08:13:13","af8d355d56820e421d246a7037deb6e6","73.231.147.146","Mozilla/5.0 (Windows NT 10.0; Win64; x64) AppleWebKit/537.36 (KHTML, like Gecko) Chrome/131.0.0.0 Safari/537.36","WebKit","Chrome","131.0.0.0","Windows","10.0","https://app.prolific.com/","en,zh-CN;q=0.9,zh;q=0.8,ja;q=0.7,zh-TW;q=0.6","6500b3922f1493c553f2037f","67949641171f97c04e14fb34","0eyrvjnk9si","","null","<img  src='G_1.jpg' height='90'> <img id='selected'  src='G_7.jpg' height='90'> <img id='selected' src='G_3.jpg' height='90'> <img src='G_9.jpg' height='90'> <img src='G_5.jpg' height='90'>","null","Learning example 0",""
"","","","","","html-button-response","34","18650","0.0-33.0-0.0-0.0","29","1","2025-01-25 08:13:13","af8d355d56820e421d246a7037deb6e6","73.231.147.146","Mozilla/5.0 (Windows NT 10.0; Win64; x64) AppleWebKit/537.36 (KHTML, like Gecko) Chrome/131.0.0.0 Safari/537.36","WebKit","Chrome","131.0.0.0","Windows","10.0","https://app.prolific.com/","en,zh-CN;q=0.9,zh;q=0.8,ja;q=0.7,zh-TW;q=0.6","6500b3922f1493c553f2037f","67949641171f97c04e14fb34","0eyrvjnk9si","","426","<img  src='G_1.jpg' height='90'> <img id='selected'  src='G_7.jpg' height='90'> <img id='selected' src='G_3.jpg' height='90'> <img src='G_9.jpg' height='90'> <img src='G_5.jpg' height='90'>","1","Learning example 0",""
"","","","","","html-button-response","35","19004","0.0-33.1-0.1-0.1","29","1","2025-01-25 08:13:13","af8d355d56820e421d246a7037deb6e6","73.231.147.146","Mozilla/5.0 (Windows NT 10.0; Win64; x64) AppleWebKit/537.36 (KHTML, like Gecko) Chrome/131.0.0.0 Safari/537.36","WebKit","Chrome","131.0.0.0","Windows","10.0","https://app.prolific.com/","en,zh-CN;q=0.9,zh;q=0.8,ja;q=0.7,zh-TW;q=0.6","6500b3922f1493c553f2037f","67949641171f97c04e14fb34","0eyrvjnk9si","","353","<img  src='G_1.jpg' height='90'> <img id='selected'  src='G_7.jpg' height='90'> <img id='selected' src='G_3.jpg' height='90'> <img src='G_9.jpg' height='90'> <img src='G_5.jpg' height='90'>","2","Learning example 0",""
"","","","","","html-button-response","36","19207","0.0-34.0","29","1","2025-01-25 08:13:13","af8d355d56820e421d246a7037deb6e6","73.231.147.146","Mozilla/5.0 (Windows NT 10.0; Win64; x64) AppleWebKit/537.36 (KHTML, like Gecko) Chrome/131.0.0.0 Safari/537.36","WebKit","Chrome","131.0.0.0","Windows","10.0","https://app.prolific.com/","en,zh-CN;q=0.9,zh;q=0.8,ja;q=0.7,zh-TW;q=0.6","6500b3922f1493c553f2037f","67949641171f97c04e14fb34","0eyrvjnk9si","","null","<img  src='G_1.jpg' height='90'> <img   src='G_7.jpg' height='90'> <img  src='G_3.jpg' height='90'> <img src='G_9.jpg' height='90'> <img src='G_5.jpg' height='90'>","null","Learning example 0",""
"","","","","","html-button-response","37","19621","0.0-35.0","29","1","2025-01-25 08:13:13","af8d355d56820e421d246a7037deb6e6","73.231.147.146","Mozilla/5.0 (Windows NT 10.0; Win64; x64) AppleWebKit/537.36 (KHTML, like Gecko) Chrome/131.0.0.0 Safari/537.36","WebKit","Chrome","131.0.0.0","Windows","10.0","https://app.prolific.com/","en,zh-CN;q=0.9,zh;q=0.8,ja;q=0.7,zh-TW;q=0.6","6500b3922f1493c553f2037f","67949641171f97c04e14fb34","0eyrvjnk9si","","null","<img  src='G_1.jpg' height='90'> <img   src='G_7.jpg' height='90'> <img id='selected'  src='G_3.jpg' height='90'> <img src='G_9.jpg' height='90'> <img src='G_5.jpg' height='90'>","null","Learning example 0",""
"","","","","","html-button-response","38","19931","0.0-36.0","29","1","2025-01-25 08:13:13","af8d355d56820e421d246a7037deb6e6","73.231.147.146","Mozilla/5.0 (Windows NT 10.0; Win64; x64) AppleWebKit/537.36 (KHTML, like Gecko) Chrome/131.0.0.0 Safari/537.36","WebKit","Chrome","131.0.0.0","Windows","10.0","https://app.prolific.com/","en,zh-CN;q=0.9,zh;q=0.8,ja;q=0.7,zh-TW;q=0.6","6500b3922f1493c553f2037f","67949641171f97c04e14fb34","0eyrvjnk9si","","null","<img  src='G_1.jpg' height='90'> <img   src='G_7.jpg' height='90'> <img id='selected'  src='G_3.jpg' height='90'> <img id='selected' src='G_9.jpg' height='90'> <img src='G_5.jpg' height='90'>","null","Learning example 0",""
"","","","","","html-button-response","39","20236","0.0-37.0","29","1","2025-01-25 08:13:13","af8d355d56820e421d246a7037deb6e6","73.231.147.146","Mozilla/5.0 (Windows NT 10.0; Win64; x64) AppleWebKit/537.36 (KHTML, like Gecko) Chrome/131.0.0.0 Safari/537.36","WebKit","Chrome","131.0.0.0","Windows","10.0","https://app.prolific.com/","en,zh-CN;q=0.9,zh;q=0.8,ja;q=0.7,zh-TW;q=0.6","6500b3922f1493c553f2037f","67949641171f97c04e14fb34","0eyrvjnk9si","","null","<img  src='G_1.jpg' height='90'> <img   src='G_7.jpg' height='90'> <img id='selected'  src='G_3.jpg' height='90'> <img id='selected' src='G_9.jpg' height='90'> <img src='G_5.jpg' height='90'>","null","Learning example 0",""
"","","","","","html-button-response","40","21114","0.0-38.0-0.0-0.0","29","1","2025-01-25 08:13:13","af8d355d56820e421d246a7037deb6e6","73.231.147.146","Mozilla/5.0 (Windows NT 10.0; Win64; x64) AppleWebKit/537.36 (KHTML, like Gecko) Chrome/131.0.0.0 Safari/537.36","WebKit","Chrome","131.0.0.0","Windows","10.0","https://app.prolific.com/","en,zh-CN;q=0.9,zh;q=0.8,ja;q=0.7,zh-TW;q=0.6","6500b3922f1493c553f2037f","67949641171f97c04e14fb34","0eyrvjnk9si","","873","<img  src='G_1.jpg' height='90'> <img   src='G_7.jpg' height='90'> <img id='selected'  src='G_3.jpg' height='90'> <img id='selected' src='G_9.jpg' height='90'> <img src='G_5.jpg' height='90'>","2","Learning example 0",""
"","","","","","html-button-response","41","21460","0.0-38.1-0.1-0.1","29","1","2025-01-25 08:13:13","af8d355d56820e421d246a7037deb6e6","73.231.147.146","Mozilla/5.0 (Windows NT 10.0; Win64; x64) AppleWebKit/537.36 (KHTML, like Gecko) Chrome/131.0.0.0 Safari/537.36","WebKit","Chrome","131.0.0.0","Windows","10.0","https://app.prolific.com/","en,zh-CN;q=0.9,zh;q=0.8,ja;q=0.7,zh-TW;q=0.6","6500b3922f1493c553f2037f","67949641171f97c04e14fb34","0eyrvjnk9si","","344","<img  src='G_1.jpg' height='90'> <img   src='G_7.jpg' height='90'> <img id='selected'  src='G_3.jpg' height='90'> <img id='selected' src='G_9.jpg' height='90'> <img src='G_5.jpg' height='90'>","3","Learning example 0",""
"","","","","","html-button-response","42","21663","0.0-39.0","29","1","2025-01-25 08:13:13","af8d355d56820e421d246a7037deb6e6","73.231.147.146","Mozilla/5.0 (Windows NT 10.0; Win64; x64) AppleWebKit/537.36 (KHTML, like Gecko) Chrome/131.0.0.0 Safari/537.36","WebKit","Chrome","131.0.0.0","Windows","10.0","https://app.prolific.com/","en,zh-CN;q=0.9,zh;q=0.8,ja;q=0.7,zh-TW;q=0.6","6500b3922f1493c553f2037f","67949641171f97c04e14fb34","0eyrvjnk9si","","null","<img  src='G_1.jpg' height='90'> <img   src='G_7.jpg' height='90'> <img   src='G_3.jpg' height='90'> <img  src='G_9.jpg' height='90'> <img src='G_5.jpg' height='90'>","null","Learning example 0",""
"","","","","","html-button-response","43","22073","0.0-40.0","29","1","2025-01-25 08:13:13","af8d355d56820e421d246a7037deb6e6","73.231.147.146","Mozilla/5.0 (Windows NT 10.0; Win64; x64) AppleWebKit/537.36 (KHTML, like Gecko) Chrome/131.0.0.0 Safari/537.36","WebKit","Chrome","131.0.0.0","Windows","10.0","https://app.prolific.com/","en,zh-CN;q=0.9,zh;q=0.8,ja;q=0.7,zh-TW;q=0.6","6500b3922f1493c553f2037f","67949641171f97c04e14fb34","0eyrvjnk9si","","null","<img  src='G_1.jpg' height='90'> <img   src='G_7.jpg' height='90'> <img   src='G_3.jpg' height='90'> <img id='selected'  src='G_9.jpg' height='90'> <img src='G_5.jpg' height='90'>","null","Learning example 0",""
"","","","","","html-button-response","44","22386","0.0-41.0","29","1","2025-01-25 08:13:13","af8d355d56820e421d246a7037deb6e6","73.231.147.146","Mozilla/5.0 (Windows NT 10.0; Win64; x64) AppleWebKit/537.36 (KHTML, like Gecko) Chrome/131.0.0.0 Safari/537.36","WebKit","Chrome","131.0.0.0","Windows","10.0","https://app.prolific.com/","en,zh-CN;q=0.9,zh;q=0.8,ja;q=0.7,zh-TW;q=0.6","6500b3922f1493c553f2037f","67949641171f97c04e14fb34","0eyrvjnk9si","","null","<img  src='G_1.jpg' height='90'> <img   src='G_7.jpg' height='90'> <img   src='G_3.jpg' height='90'> <img id='selected'  src='G_9.jpg' height='90'> <img id='selected' src='G_5.jpg' height='90'>","null","Learning example 0",""
"","","","","","html-button-response","45","22701","0.0-42.0","29","1","2025-01-25 08:13:13","af8d355d56820e421d246a7037deb6e6","73.231.147.146","Mozilla/5.0 (Windows NT 10.0; Win64; x64) AppleWebKit/537.36 (KHTML, like Gecko) Chrome/131.0.0.0 Safari/537.36","WebKit","Chrome","131.0.0.0","Windows","10.0","https://app.prolific.com/","en,zh-CN;q=0.9,zh;q=0.8,ja;q=0.7,zh-TW;q=0.6","6500b3922f1493c553f2037f","67949641171f97c04e14fb34","0eyrvjnk9si","","null","<img  src='G_1.jpg' height='90'> <img   src='G_7.jpg' height='90'> <img   src='G_3.jpg' height='90'> <img id='selected'  src='G_9.jpg' height='90'> <img id='selected' src='G_5.jpg' height='90'>","null","Learning example 0",""
"","","","","","html-button-response","46","23370","0.0-43.0-0.0-0.0","29","1","2025-01-25 08:13:13","af8d355d56820e421d246a7037deb6e6","73.231.147.146","Mozilla/5.0 (Windows NT 10.0; Win64; x64) AppleWebKit/537.36 (KHTML, like Gecko) Chrome/131.0.0.0 Safari/537.36","WebKit","Chrome","131.0.0.0","Windows","10.0","https://app.prolific.com/","en,zh-CN;q=0.9,zh;q=0.8,ja;q=0.7,zh-TW;q=0.6","6500b3922f1493c553f2037f","67949641171f97c04e14fb34","0eyrvjnk9si","","664","<img  src='G_1.jpg' height='90'> <img   src='G_7.jpg' height='90'> <img   src='G_3.jpg' height='90'> <img id='selected'  src='G_9.jpg' height='90'> <img id='selected' src='G_5.jpg' height='90'>","3","Learning example 0",""
"","","","","","html-button-response","47","23678","0.0-43.1-0.1-0.1","29","1","2025-01-25 08:13:13","af8d355d56820e421d246a7037deb6e6","73.231.147.146","Mozilla/5.0 (Windows NT 10.0; Win64; x64) AppleWebKit/537.36 (KHTML, like Gecko) Chrome/131.0.0.0 Safari/537.36","WebKit","Chrome","131.0.0.0","Windows","10.0","https://app.prolific.com/","en,zh-CN;q=0.9,zh;q=0.8,ja;q=0.7,zh-TW;q=0.6","6500b3922f1493c553f2037f","67949641171f97c04e14fb34","0eyrvjnk9si","","306","<img  src='G_1.jpg' height='90'> <img   src='G_7.jpg' height='90'> <img   src='G_3.jpg' height='90'> <img id='selected'  src='G_9.jpg' height='90'> <img id='selected' src='G_5.jpg' height='90'>","4","Learning example 0",""
"","","","","","html-button-response","48","23881","0.0-44.0","29","1","2025-01-25 08:13:13","af8d355d56820e421d246a7037deb6e6","73.231.147.146","Mozilla/5.0 (Windows NT 10.0; Win64; x64) AppleWebKit/537.36 (KHTML, like Gecko) Chrome/131.0.0.0 Safari/537.36","WebKit","Chrome","131.0.0.0","Windows","10.0","https://app.prolific.com/","en,zh-CN;q=0.9,zh;q=0.8,ja;q=0.7,zh-TW;q=0.6","6500b3922f1493c553f2037f","67949641171f97c04e14fb34","0eyrvjnk9si","","null","<img  src='G_1.jpg' height='90'> <img   src='G_7.jpg' height='90'> <img   src='G_3.jpg' height='90'> <img   src='G_9.jpg' height='90'> <img  src='G_5.jpg' height='90'>","null","Learning example 0",""
"","","","","","html-keyboard-response","49","24700","0.0-45.0","29","1","2025-01-25 08:13:13","af8d355d56820e421d246a7037deb6e6","73.231.147.146","Mozilla/5.0 (Windows NT 10.0; Win64; x64) AppleWebKit/537.36 (KHTML, like Gecko) Chrome/131.0.0.0 Safari/537.36","WebKit","Chrome","131.0.0.0","Windows","10.0","https://app.prolific.com/","en,zh-CN;q=0.9,zh;q=0.8,ja;q=0.7,zh-TW;q=0.6","6500b3922f1493c553f2037f","67949641171f97c04e14fb34","0eyrvjnk9si","","816","[""Final order was 1,2,3,4,5. The initial order was 2,1,3,4,5.<br>It took 1 swaps to sort it correctly with Omgne Sort. <br><br>Press Enter to continue.""]","enter","",""
"","","","","","html-keyboard-response","50","25149","0.0-46.0","29","1","2025-01-25 08:13:13","af8d355d56820e421d246a7037deb6e6","73.231.147.146","Mozilla/5.0 (Windows NT 10.0; Win64; x64) AppleWebKit/537.36 (KHTML, like Gecko) Chrome/131.0.0.0 Safari/537.36","WebKit","Chrome","131.0.0.0","Windows","10.0","https://app.prolific.com/","en,zh-CN;q=0.9,zh;q=0.8,ja;q=0.7,zh-TW;q=0.6","6500b3922f1493c553f2037f","67949641171f97c04e14fb34","0eyrvjnk9si","","444","[""Example 2<br><br>You will watch Omnge Sort in action. Try to identify any patterns in the comparisons made by this method. <br><br>Press Enter to continue.""]","enter","",""
"","","","","","html-keyboard-response","51","25655","0.0-47.0","29","1","2025-01-25 08:13:13","af8d355d56820e421d246a7037deb6e6","73.231.147.146","Mozilla/5.0 (Windows NT 10.0; Win64; x64) AppleWebKit/537.36 (KHTML, like Gecko) Chrome/131.0.0.0 Safari/537.36","WebKit","Chrome","131.0.0.0","Windows","10.0","https://app.prolific.com/","en,zh-CN;q=0.9,zh;q=0.8,ja;q=0.7,zh-TW;q=0.6","6500b3922f1493c553f2037f","67949641171f97c04e14fb34","0eyrvjnk9si","","null","<img id='selected' src='G_2.jpg' height='90'> <img src='G_1.jpg' height='90'> <img src='G_7.jpg' height='90'> <img src='G_6.jpg' height='90'> <img src='G_3.jpg' height='90'> <img src='G_4.jpg' height='90'> <img src='G_5.jpg' height='90'> <img src='G_8.jpg' height='90'>","null","Animation1",""
"","","","","","html-keyboard-response","52","26158","0.0-48.0","29","1","2025-01-25 08:13:13","af8d355d56820e421d246a7037deb6e6","73.231.147.146","Mozilla/5.0 (Windows NT 10.0; Win64; x64) AppleWebKit/537.36 (KHTML, like Gecko) Chrome/131.0.0.0 Safari/537.36","WebKit","Chrome","131.0.0.0","Windows","10.0","https://app.prolific.com/","en,zh-CN;q=0.9,zh;q=0.8,ja;q=0.7,zh-TW;q=0.6","6500b3922f1493c553f2037f","67949641171f97c04e14fb34","0eyrvjnk9si","","null","<img id='selected' src='G_2.jpg' height='90'> <img id='selected' src='G_1.jpg' height='90'> <img src='G_7.jpg' height='90'> <img src='G_6.jpg' height='90'> <img src='G_3.jpg' height='90'> <img src='G_4.jpg' height='90'> <img src='G_5.jpg' height='90'> <img src='G_8.jpg' height='90'>","null","Animation1",""
"","","","","","html-keyboard-response","53","26679","0.0-49.0","29","1","2025-01-25 08:13:13","af8d355d56820e421d246a7037deb6e6","73.231.147.146","Mozilla/5.0 (Windows NT 10.0; Win64; x64) AppleWebKit/537.36 (KHTML, like Gecko) Chrome/131.0.0.0 Safari/537.36","WebKit","Chrome","131.0.0.0","Windows","10.0","https://app.prolific.com/","en,zh-CN;q=0.9,zh;q=0.8,ja;q=0.7,zh-TW;q=0.6","6500b3922f1493c553f2037f","67949641171f97c04e14fb34","0eyrvjnk9si","","null","<img id='selected' src='G_2.jpg' height='90'> <img id='selected' src='G_1.jpg' height='90'> <img src='G_7.jpg' height='90'> <img src='G_6.jpg' height='90'> <img src='G_3.jpg' height='90'> <img src='G_4.jpg' height='90'> <img src='G_5.jpg' height='90'> <img src='G_8.jpg' height='90'>","null","Animation1",""
"","","","","","html-keyboard-response","54","26990","0.0-50.0","29","1","2025-01-25 08:13:13","af8d355d56820e421d246a7037deb6e6","73.231.147.146","Mozilla/5.0 (Windows NT 10.0; Win64; x64) AppleWebKit/537.36 (KHTML, like Gecko) Chrome/131.0.0.0 Safari/537.36","WebKit","Chrome","131.0.0.0","Windows","10.0","https://app.prolific.com/","en,zh-CN;q=0.9,zh;q=0.8,ja;q=0.7,zh-TW;q=0.6","6500b3922f1493c553f2037f","67949641171f97c04e14fb34","0eyrvjnk9si","","null","<img  src='G_2.jpg' height='90'> <img  src='G_1.jpg' height='90'> <img src='G_7.jpg' height='90'> <img src='G_6.jpg' height='90'> <img src='G_3.jpg' height='90'> <img src='G_4.jpg' height='90'> <img src='G_5.jpg' height='90'> <img src='G_8.jpg' height='90'>","null","Animation1",""
"","","","","","html-keyboard-response","55","27505","0.0-51.0","29","1","2025-01-25 08:13:13","af8d355d56820e421d246a7037deb6e6","73.231.147.146","Mozilla/5.0 (Windows NT 10.0; Win64; x64) AppleWebKit/537.36 (KHTML, like Gecko) Chrome/131.0.0.0 Safari/537.36","WebKit","Chrome","131.0.0.0","Windows","10.0","https://app.prolific.com/","en,zh-CN;q=0.9,zh;q=0.8,ja;q=0.7,zh-TW;q=0.6","6500b3922f1493c553f2037f","67949641171f97c04e14fb34","0eyrvjnk9si","","null","<img  src='G_2.jpg' height='90'> <img id='selected'  src='G_1.jpg' height='90'> <img src='G_7.jpg' height='90'> <img src='G_6.jpg' height='90'> <img src='G_3.jpg' height='90'> <img src='G_4.jpg' height='90'> <img src='G_5.jpg' height='90'> <img src='G_8.jpg' height='90'>","null","Animation1",""
"","","","","","html-keyboard-response","56","28019","0.0-52.0","29","1","2025-01-25 08:13:13","af8d355d56820e421d246a7037deb6e6","73.231.147.146","Mozilla/5.0 (Windows NT 10.0; Win64; x64) AppleWebKit/537.36 (KHTML, like Gecko) Chrome/131.0.0.0 Safari/537.36","WebKit","Chrome","131.0.0.0","Windows","10.0","https://app.prolific.com/","en,zh-CN;q=0.9,zh;q=0.8,ja;q=0.7,zh-TW;q=0.6","6500b3922f1493c553f2037f","67949641171f97c04e14fb34","0eyrvjnk9si","","null","<img  src='G_2.jpg' height='90'> <img id='selected'  src='G_1.jpg' height='90'> <img id='selected' src='G_7.jpg' height='90'> <img src='G_6.jpg' height='90'> <img src='G_3.jpg' height='90'> <img src='G_4.jpg' height='90'> <img src='G_5.jpg' height='90'> <img src='G_8.jpg' height='90'>","null","Animation1",""
"","","","","","html-keyboard-response","57","28535","0.0-53.0","29","1","2025-01-25 08:13:13","af8d355d56820e421d246a7037deb6e6","73.231.147.146","Mozilla/5.0 (Windows NT 10.0; Win64; x64) AppleWebKit/537.36 (KHTML, like Gecko) Chrome/131.0.0.0 Safari/537.36","WebKit","Chrome","131.0.0.0","Windows","10.0","https://app.prolific.com/","en,zh-CN;q=0.9,zh;q=0.8,ja;q=0.7,zh-TW;q=0.6","6500b3922f1493c553f2037f","67949641171f97c04e14fb34","0eyrvjnk9si","","null","<img  src='G_2.jpg' height='90'> <img id='swapped' src='G_7.jpg' height='90'> <img id='swapped'  src='G_1.jpg' height='90'> <img src='G_6.jpg' height='90'> <img src='G_3.jpg' height='90'> <img src='G_4.jpg' height='90'> <img src='G_5.jpg' height='90'> <img src='G_8.jpg' height='90'>","null","Animation1",""
"","","","","","html-keyboard-response","58","28849","0.0-54.0","29","1","2025-01-25 08:13:13","af8d355d56820e421d246a7037deb6e6","73.231.147.146","Mozilla/5.0 (Windows NT 10.0; Win64; x64) AppleWebKit/537.36 (KHTML, like Gecko) Chrome/131.0.0.0 Safari/537.36","WebKit","Chrome","131.0.0.0","Windows","10.0","https://app.prolific.com/","en,zh-CN;q=0.9,zh;q=0.8,ja;q=0.7,zh-TW;q=0.6","6500b3922f1493c553f2037f","67949641171f97c04e14fb34","0eyrvjnk9si","","null","<img  src='G_2.jpg' height='90'> <img  src='G_7.jpg' height='90'> <img   src='G_1.jpg' height='90'> <img src='G_6.jpg' height='90'> <img src='G_3.jpg' height='90'> <img src='G_4.jpg' height='90'> <img src='G_5.jpg' height='90'> <img src='G_8.jpg' height='90'>","null","Animation1",""
"","","","","","html-keyboard-response","59","29364","0.0-55.0","29","1","2025-01-25 08:13:13","af8d355d56820e421d246a7037deb6e6","73.231.147.146","Mozilla/5.0 (Windows NT 10.0; Win64; x64) AppleWebKit/537.36 (KHTML, like Gecko) Chrome/131.0.0.0 Safari/537.36","WebKit","Chrome","131.0.0.0","Windows","10.0","https://app.prolific.com/","en,zh-CN;q=0.9,zh;q=0.8,ja;q=0.7,zh-TW;q=0.6","6500b3922f1493c553f2037f","67949641171f97c04e14fb34","0eyrvjnk9si","","null","<img id='selected'  src='G_2.jpg' height='90'> <img  src='G_7.jpg' height='90'> <img   src='G_1.jpg' height='90'> <img src='G_6.jpg' height='90'> <img src='G_3.jpg' height='90'> <img src='G_4.jpg' height='90'> <img src='G_5.jpg' height='90'> <img src='G_8.jpg' height='90'>","null","Animation1",""
"","","","","","html-keyboard-response","60","29877","0.0-56.0","29","1","2025-01-25 08:13:13","af8d355d56820e421d246a7037deb6e6","73.231.147.146","Mozilla/5.0 (Windows NT 10.0; Win64; x64) AppleWebKit/537.36 (KHTML, like Gecko) Chrome/131.0.0.0 Safari/537.36","WebKit","Chrome","131.0.0.0","Windows","10.0","https://app.prolific.com/","en,zh-CN;q=0.9,zh;q=0.8,ja;q=0.7,zh-TW;q=0.6","6500b3922f1493c553f2037f","67949641171f97c04e14fb34","0eyrvjnk9si","","null","<img id='selected'  src='G_2.jpg' height='90'> <img id='selected'  src='G_7.jpg' height='90'> <img   src='G_1.jpg' height='90'> <img src='G_6.jpg' height='90'> <img src='G_3.jpg' height='90'> <img src='G_4.jpg' height='90'> <img src='G_5.jpg' height='90'> <img src='G_8.jpg' height='90'>","null","Animation1",""
"","","","","","html-keyboard-response","61","30395","0.0-57.0","29","1","2025-01-25 08:13:13","af8d355d56820e421d246a7037deb6e6","73.231.147.146","Mozilla/5.0 (Windows NT 10.0; Win64; x64) AppleWebKit/537.36 (KHTML, like Gecko) Chrome/131.0.0.0 Safari/537.36","WebKit","Chrome","131.0.0.0","Windows","10.0","https://app.prolific.com/","en,zh-CN;q=0.9,zh;q=0.8,ja;q=0.7,zh-TW;q=0.6","6500b3922f1493c553f2037f","67949641171f97c04e14fb34","0eyrvjnk9si","","null","<img id='swapped'  src='G_7.jpg' height='90'> <img id='swapped'  src='G_2.jpg' height='90'> <img   src='G_1.jpg' height='90'> <img src='G_6.jpg' height='90'> <img src='G_3.jpg' height='90'> <img src='G_4.jpg' height='90'> <img src='G_5.jpg' height='90'> <img src='G_8.jpg' height='90'>","null","Animation1",""
"","","","","","html-keyboard-response","62","30710","0.0-58.0","29","1","2025-01-25 08:13:13","af8d355d56820e421d246a7037deb6e6","73.231.147.146","Mozilla/5.0 (Windows NT 10.0; Win64; x64) AppleWebKit/537.36 (KHTML, like Gecko) Chrome/131.0.0.0 Safari/537.36","WebKit","Chrome","131.0.0.0","Windows","10.0","https://app.prolific.com/","en,zh-CN;q=0.9,zh;q=0.8,ja;q=0.7,zh-TW;q=0.6","6500b3922f1493c553f2037f","67949641171f97c04e14fb34","0eyrvjnk9si","","null","<img   src='G_7.jpg' height='90'> <img   src='G_2.jpg' height='90'> <img   src='G_1.jpg' height='90'> <img src='G_6.jpg' height='90'> <img src='G_3.jpg' height='90'> <img src='G_4.jpg' height='90'> <img src='G_5.jpg' height='90'> <img src='G_8.jpg' height='90'>","null","Animation1",""
"","","","","","html-keyboard-response","63","31223","0.0-59.0","29","1","2025-01-25 08:13:13","af8d355d56820e421d246a7037deb6e6","73.231.147.146","Mozilla/5.0 (Windows NT 10.0; Win64; x64) AppleWebKit/537.36 (KHTML, like Gecko) Chrome/131.0.0.0 Safari/537.36","WebKit","Chrome","131.0.0.0","Windows","10.0","https://app.prolific.com/","en,zh-CN;q=0.9,zh;q=0.8,ja;q=0.7,zh-TW;q=0.6","6500b3922f1493c553f2037f","67949641171f97c04e14fb34","0eyrvjnk9si","","null","<img   src='G_7.jpg' height='90'> <img   src='G_2.jpg' height='90'> <img id='selected'   src='G_1.jpg' height='90'> <img src='G_6.jpg' height='90'> <img src='G_3.jpg' height='90'> <img src='G_4.jpg' height='90'> <img src='G_5.jpg' height='90'> <img src='G_8.jpg' height='90'>","null","Animation1",""
"","","","","","html-keyboard-response","64","31728","0.0-60.0","29","1","2025-01-25 08:13:13","af8d355d56820e421d246a7037deb6e6","73.231.147.146","Mozilla/5.0 (Windows NT 10.0; Win64; x64) AppleWebKit/537.36 (KHTML, like Gecko) Chrome/131.0.0.0 Safari/537.36","WebKit","Chrome","131.0.0.0","Windows","10.0","https://app.prolific.com/","en,zh-CN;q=0.9,zh;q=0.8,ja;q=0.7,zh-TW;q=0.6","6500b3922f1493c553f2037f","67949641171f97c04e14fb34","0eyrvjnk9si","","null","<img   src='G_7.jpg' height='90'> <img   src='G_2.jpg' height='90'> <img id='selected'   src='G_1.jpg' height='90'> <img id='selected' src='G_6.jpg' height='90'> <img src='G_3.jpg' height='90'> <img src='G_4.jpg' height='90'> <img src='G_5.jpg' height='90'> <img src='G_8.jpg' height='90'>","null","Animation1",""
"","","","","","html-keyboard-response","65","32241","0.0-61.0","29","1","2025-01-25 08:13:13","af8d355d56820e421d246a7037deb6e6","73.231.147.146","Mozilla/5.0 (Windows NT 10.0; Win64; x64) AppleWebKit/537.36 (KHTML, like Gecko) Chrome/131.0.0.0 Safari/537.36","WebKit","Chrome","131.0.0.0","Windows","10.0","https://app.prolific.com/","en,zh-CN;q=0.9,zh;q=0.8,ja;q=0.7,zh-TW;q=0.6","6500b3922f1493c553f2037f","67949641171f97c04e14fb34","0eyrvjnk9si","","null","<img   src='G_7.jpg' height='90'> <img   src='G_2.jpg' height='90'> <img id='swapped' src='G_6.jpg' height='90'> <img id='swapped'   src='G_1.jpg' height='90'> <img src='G_3.jpg' height='90'> <img src='G_4.jpg' height='90'> <img src='G_5.jpg' height='90'> <img src='G_8.jpg' height='90'>","null","Animation1",""
"","","","","","html-keyboard-response","66","32785","0.0-62.0","29","1","2025-01-25 08:13:13","af8d355d56820e421d246a7037deb6e6","73.231.147.146","Mozilla/5.0 (Windows NT 10.0; Win64; x64) AppleWebKit/537.36 (KHTML, like Gecko) Chrome/131.0.0.0 Safari/537.36","WebKit","Chrome","131.0.0.0","Windows","10.0","https://app.prolific.com/","en,zh-CN;q=0.9,zh;q=0.8,ja;q=0.7,zh-TW;q=0.6","6500b3922f1493c553f2037f","67949641171f97c04e14fb34","0eyrvjnk9si","","null","<img   src='G_7.jpg' height='90'> <img   src='G_2.jpg' height='90'> <img  src='G_6.jpg' height='90'> <img    src='G_1.jpg' height='90'> <img src='G_3.jpg' height='90'> <img src='G_4.jpg' height='90'> <img src='G_5.jpg' height='90'> <img src='G_8.jpg' height='90'>","null","Animation1",""
"","","","","","html-keyboard-response","67","33785","0.0-63.0","29","1","2025-01-25 08:13:13","af8d355d56820e421d246a7037deb6e6","73.231.147.146","Mozilla/5.0 (Windows NT 10.0; Win64; x64) AppleWebKit/537.36 (KHTML, like Gecko) Chrome/131.0.0.0 Safari/537.36","WebKit","Chrome","131.0.0.0","Windows","10.0","https://app.prolific.com/","en,zh-CN;q=0.9,zh;q=0.8,ja;q=0.7,zh-TW;q=0.6","6500b3922f1493c553f2037f","67949641171f97c04e14fb34","0eyrvjnk9si","","null","<img   src='G_7.jpg' height='90'> <img id='selected'   src='G_2.jpg' height='90'> <img  src='G_6.jpg' height='90'> <img    src='G_1.jpg' height='90'> <img src='G_3.jpg' height='90'> <img src='G_4.jpg' height='90'> <img src='G_5.jpg' height='90'> <img src='G_8.jpg' height='90'>","null","Animation1",""
"","","","","","html-keyboard-response","68","34785","0.0-64.0","29","1","2025-01-25 08:13:13","af8d355d56820e421d246a7037deb6e6","73.231.147.146","Mozilla/5.0 (Windows NT 10.0; Win64; x64) AppleWebKit/537.36 (KHTML, like Gecko) Chrome/131.0.0.0 Safari/537.36","WebKit","Chrome","131.0.0.0","Windows","10.0","https://app.prolific.com/","en,zh-CN;q=0.9,zh;q=0.8,ja;q=0.7,zh-TW;q=0.6","6500b3922f1493c553f2037f","67949641171f97c04e14fb34","0eyrvjnk9si","","null","<img   src='G_7.jpg' height='90'> <img id='selected'   src='G_2.jpg' height='90'> <img id='selected'  src='G_6.jpg' height='90'> <img    src='G_1.jpg' height='90'> <img src='G_3.jpg' height='90'> <img src='G_4.jpg' height='90'> <img src='G_5.jpg' height='90'> <img src='G_8.jpg' height='90'>","null","Animation1",""
"","","","","","html-keyboard-response","69","35798","0.0-65.0","29","1","2025-01-25 08:13:13","af8d355d56820e421d246a7037deb6e6","73.231.147.146","Mozilla/5.0 (Windows NT 10.0; Win64; x64) AppleWebKit/537.36 (KHTML, like Gecko) Chrome/131.0.0.0 Safari/537.36","WebKit","Chrome","131.0.0.0","Windows","10.0","https://app.prolific.com/","en,zh-CN;q=0.9,zh;q=0.8,ja;q=0.7,zh-TW;q=0.6","6500b3922f1493c553f2037f","67949641171f97c04e14fb34","0eyrvjnk9si","","null","<img   src='G_7.jpg' height='90'> <img id='swapped'  src='G_6.jpg' height='90'> <img id='swapped'   src='G_2.jpg' height='90'> <img    src='G_1.jpg' height='90'> <img src='G_3.jpg' height='90'> <img src='G_4.jpg' height='90'> <img src='G_5.jpg' height='90'> <img src='G_8.jpg' height='90'>","null","Animation1",""
"","","","","","html-keyboard-response","70","36781","0.0-66.0","29","1","2025-01-25 08:13:13","af8d355d56820e421d246a7037deb6e6","73.231.147.146","Mozilla/5.0 (Windows NT 10.0; Win64; x64) AppleWebKit/537.36 (KHTML, like Gecko) Chrome/131.0.0.0 Safari/537.36","WebKit","Chrome","131.0.0.0","Windows","10.0","https://app.prolific.com/","en,zh-CN;q=0.9,zh;q=0.8,ja;q=0.7,zh-TW;q=0.6","6500b3922f1493c553f2037f","67949641171f97c04e14fb34","0eyrvjnk9si","","null","<img   src='G_7.jpg' height='90'> <img   src='G_6.jpg' height='90'> <img    src='G_2.jpg' height='90'> <img    src='G_1.jpg' height='90'> <img src='G_3.jpg' height='90'> <img src='G_4.jpg' height='90'> <img src='G_5.jpg' height='90'> <img src='G_8.jpg' height='90'>","null","Animation1",""
"","","","","","html-keyboard-response","71","37782","0.0-67.0","29","1","2025-01-25 08:13:13","af8d355d56820e421d246a7037deb6e6","73.231.147.146","Mozilla/5.0 (Windows NT 10.0; Win64; x64) AppleWebKit/537.36 (KHTML, like Gecko) Chrome/131.0.0.0 Safari/537.36","WebKit","Chrome","131.0.0.0","Windows","10.0","https://app.prolific.com/","en,zh-CN;q=0.9,zh;q=0.8,ja;q=0.7,zh-TW;q=0.6","6500b3922f1493c553f2037f","67949641171f97c04e14fb34","0eyrvjnk9si","","null","<img id='selected'   src='G_7.jpg' height='90'> <img   src='G_6.jpg' height='90'> <img    src='G_2.jpg' height='90'> <img    src='G_1.jpg' height='90'> <img src='G_3.jpg' height='90'> <img src='G_4.jpg' height='90'> <img src='G_5.jpg' height='90'> <img src='G_8.jpg' height='90'>","null","Animation1",""
"","","","","","html-keyboard-response","72","38795","0.0-68.0","29","1","2025-01-25 08:13:13","af8d355d56820e421d246a7037deb6e6","73.231.147.146","Mozilla/5.0 (Windows NT 10.0; Win64; x64) AppleWebKit/537.36 (KHTML, like Gecko) Chrome/131.0.0.0 Safari/537.36","WebKit","Chrome","131.0.0.0","Windows","10.0","https://app.prolific.com/","en,zh-CN;q=0.9,zh;q=0.8,ja;q=0.7,zh-TW;q=0.6","6500b3922f1493c553f2037f","67949641171f97c04e14fb34","0eyrvjnk9si","","null","<img id='selected'   src='G_7.jpg' height='90'> <img id='selected'   src='G_6.jpg' height='90'> <img    src='G_2.jpg' height='90'> <img    src='G_1.jpg' height='90'> <img src='G_3.jpg' height='90'> <img src='G_4.jpg' height='90'> <img src='G_5.jpg' height='90'> <img src='G_8.jpg' height='90'>","null","Animation1",""
"","","","","","html-keyboard-response","73","39795","0.0-69.0","29","1","2025-01-25 08:13:13","af8d355d56820e421d246a7037deb6e6","73.231.147.146","Mozilla/5.0 (Windows NT 10.0; Win64; x64) AppleWebKit/537.36 (KHTML, like Gecko) Chrome/131.0.0.0 Safari/537.36","WebKit","Chrome","131.0.0.0","Windows","10.0","https://app.prolific.com/","en,zh-CN;q=0.9,zh;q=0.8,ja;q=0.7,zh-TW;q=0.6","6500b3922f1493c553f2037f","67949641171f97c04e14fb34","0eyrvjnk9si","","null","<img id='swapped'   src='G_6.jpg' height='90'> <img id='swapped'   src='G_7.jpg' height='90'> <img    src='G_2.jpg' height='90'> <img    src='G_1.jpg' height='90'> <img src='G_3.jpg' height='90'> <img src='G_4.jpg' height='90'> <img src='G_5.jpg' height='90'> <img src='G_8.jpg' height='90'>","null","Animation1",""
"","","","","","html-keyboard-response","74","40795","0.0-70.0","29","1","2025-01-25 08:13:13","af8d355d56820e421d246a7037deb6e6","73.231.147.146","Mozilla/5.0 (Windows NT 10.0; Win64; x64) AppleWebKit/537.36 (KHTML, like Gecko) Chrome/131.0.0.0 Safari/537.36","WebKit","Chrome","131.0.0.0","Windows","10.0","https://app.prolific.com/","en,zh-CN;q=0.9,zh;q=0.8,ja;q=0.7,zh-TW;q=0.6","6500b3922f1493c553f2037f","67949641171f97c04e14fb34","0eyrvjnk9si","","null","<img    src='G_6.jpg' height='90'> <img    src='G_7.jpg' height='90'> <img    src='G_2.jpg' height='90'> <img    src='G_1.jpg' height='90'> <img src='G_3.jpg' height='90'> <img src='G_4.jpg' height='90'> <img src='G_5.jpg' height='90'> <img src='G_8.jpg' height='90'>","null","Animation1",""
"","","","","","html-keyboard-response","75","41781","0.0-71.0","29","1","2025-01-25 08:13:13","af8d355d56820e421d246a7037deb6e6","73.231.147.146","Mozilla/5.0 (Windows NT 10.0; Win64; x64) AppleWebKit/537.36 (KHTML, like Gecko) Chrome/131.0.0.0 Safari/537.36","WebKit","Chrome","131.0.0.0","Windows","10.0","https://app.prolific.com/","en,zh-CN;q=0.9,zh;q=0.8,ja;q=0.7,zh-TW;q=0.6","6500b3922f1493c553f2037f","67949641171f97c04e14fb34","0eyrvjnk9si","","null","<img    src='G_6.jpg' height='90'> <img    src='G_7.jpg' height='90'> <img    src='G_2.jpg' height='90'> <img id='selected'    src='G_1.jpg' height='90'> <img src='G_3.jpg' height='90'> <img src='G_4.jpg' height='90'> <img src='G_5.jpg' height='90'> <img src='G_8.jpg' height='90'>","null","Animation1",""
"","","","","","html-keyboard-response","76","42782","0.0-72.0","29","1","2025-01-25 08:13:13","af8d355d56820e421d246a7037deb6e6","73.231.147.146","Mozilla/5.0 (Windows NT 10.0; Win64; x64) AppleWebKit/537.36 (KHTML, like Gecko) Chrome/131.0.0.0 Safari/537.36","WebKit","Chrome","131.0.0.0","Windows","10.0","https://app.prolific.com/","en,zh-CN;q=0.9,zh;q=0.8,ja;q=0.7,zh-TW;q=0.6","6500b3922f1493c553f2037f","67949641171f97c04e14fb34","0eyrvjnk9si","","null","<img    src='G_6.jpg' height='90'> <img    src='G_7.jpg' height='90'> <img    src='G_2.jpg' height='90'> <img id='selected'    src='G_1.jpg' height='90'> <img id='selected' src='G_3.jpg' height='90'> <img src='G_4.jpg' height='90'> <img src='G_5.jpg' height='90'> <img src='G_8.jpg' height='90'>","null","Animation1",""
"","","","","","html-keyboard-response","77","43783","0.0-73.0","29","1","2025-01-25 08:13:13","af8d355d56820e421d246a7037deb6e6","73.231.147.146","Mozilla/5.0 (Windows NT 10.0; Win64; x64) AppleWebKit/537.36 (KHTML, like Gecko) Chrome/131.0.0.0 Safari/537.36","WebKit","Chrome","131.0.0.0","Windows","10.0","https://app.prolific.com/","en,zh-CN;q=0.9,zh;q=0.8,ja;q=0.7,zh-TW;q=0.6","6500b3922f1493c553f2037f","67949641171f97c04e14fb34","0eyrvjnk9si","","null","<img    src='G_6.jpg' height='90'> <img    src='G_7.jpg' height='90'> <img    src='G_2.jpg' height='90'> <img id='swapped' src='G_3.jpg' height='90'> <img id='swapped'    src='G_1.jpg' height='90'> <img src='G_4.jpg' height='90'> <img src='G_5.jpg' height='90'> <img src='G_8.jpg' height='90'>","null","Animation1",""
"","","","","","html-keyboard-response","78","44794","0.0-74.0","29","1","2025-01-25 08:13:13","af8d355d56820e421d246a7037deb6e6","73.231.147.146","Mozilla/5.0 (Windows NT 10.0; Win64; x64) AppleWebKit/537.36 (KHTML, like Gecko) Chrome/131.0.0.0 Safari/537.36","WebKit","Chrome","131.0.0.0","Windows","10.0","https://app.prolific.com/","en,zh-CN;q=0.9,zh;q=0.8,ja;q=0.7,zh-TW;q=0.6","6500b3922f1493c553f2037f","67949641171f97c04e14fb34","0eyrvjnk9si","","null","<img    src='G_6.jpg' height='90'> <img    src='G_7.jpg' height='90'> <img    src='G_2.jpg' height='90'> <img  src='G_3.jpg' height='90'> <img     src='G_1.jpg' height='90'> <img src='G_4.jpg' height='90'> <img src='G_5.jpg' height='90'> <img src='G_8.jpg' height='90'>","null","Animation1",""
"","","","","","html-keyboard-response","79","45796","0.0-75.0","29","1","2025-01-25 08:13:13","af8d355d56820e421d246a7037deb6e6","73.231.147.146","Mozilla/5.0 (Windows NT 10.0; Win64; x64) AppleWebKit/537.36 (KHTML, like Gecko) Chrome/131.0.0.0 Safari/537.36","WebKit","Chrome","131.0.0.0","Windows","10.0","https://app.prolific.com/","en,zh-CN;q=0.9,zh;q=0.8,ja;q=0.7,zh-TW;q=0.6","6500b3922f1493c553f2037f","67949641171f97c04e14fb34","0eyrvjnk9si","","null","<img    src='G_6.jpg' height='90'> <img    src='G_7.jpg' height='90'> <img id='selected'    src='G_2.jpg' height='90'> <img  src='G_3.jpg' height='90'> <img     src='G_1.jpg' height='90'> <img src='G_4.jpg' height='90'> <img src='G_5.jpg' height='90'> <img src='G_8.jpg' height='90'>","null","Animation1",""
"","","","","","html-keyboard-response","80","46791","0.0-76.0","29","1","2025-01-25 08:13:13","af8d355d56820e421d246a7037deb6e6","73.231.147.146","Mozilla/5.0 (Windows NT 10.0; Win64; x64) AppleWebKit/537.36 (KHTML, like Gecko) Chrome/131.0.0.0 Safari/537.36","WebKit","Chrome","131.0.0.0","Windows","10.0","https://app.prolific.com/","en,zh-CN;q=0.9,zh;q=0.8,ja;q=0.7,zh-TW;q=0.6","6500b3922f1493c553f2037f","67949641171f97c04e14fb34","0eyrvjnk9si","","null","<img    src='G_6.jpg' height='90'> <img    src='G_7.jpg' height='90'> <img id='selected'    src='G_2.jpg' height='90'> <img id='selected'  src='G_3.jpg' height='90'> <img     src='G_1.jpg' height='90'> <img src='G_4.jpg' height='90'> <img src='G_5.jpg' height='90'> <img src='G_8.jpg' height='90'>","null","Animation1",""
"","","","","","html-keyboard-response","81","47793","0.0-77.0","29","1","2025-01-25 08:13:13","af8d355d56820e421d246a7037deb6e6","73.231.147.146","Mozilla/5.0 (Windows NT 10.0; Win64; x64) AppleWebKit/537.36 (KHTML, like Gecko) Chrome/131.0.0.0 Safari/537.36","WebKit","Chrome","131.0.0.0","Windows","10.0","https://app.prolific.com/","en,zh-CN;q=0.9,zh;q=0.8,ja;q=0.7,zh-TW;q=0.6","6500b3922f1493c553f2037f","67949641171f97c04e14fb34","0eyrvjnk9si","","null","<img    src='G_6.jpg' height='90'> <img    src='G_7.jpg' height='90'> <img id='swapped'  src='G_3.jpg' height='90'> <img id='swapped'    src='G_2.jpg' height='90'> <img     src='G_1.jpg' height='90'> <img src='G_4.jpg' height='90'> <img src='G_5.jpg' height='90'> <img src='G_8.jpg' height='90'>","null","Animation1",""
"","","","","","html-keyboard-response","82","48782","0.0-78.0","29","1","2025-01-25 08:13:13","af8d355d56820e421d246a7037deb6e6","73.231.147.146","Mozilla/5.0 (Windows NT 10.0; Win64; x64) AppleWebKit/537.36 (KHTML, like Gecko) Chrome/131.0.0.0 Safari/537.36","WebKit","Chrome","131.0.0.0","Windows","10.0","https://app.prolific.com/","en,zh-CN;q=0.9,zh;q=0.8,ja;q=0.7,zh-TW;q=0.6","6500b3922f1493c553f2037f","67949641171f97c04e14fb34","0eyrvjnk9si","","null","<img    src='G_6.jpg' height='90'> <img    src='G_7.jpg' height='90'> <img   src='G_3.jpg' height='90'> <img     src='G_2.jpg' height='90'> <img     src='G_1.jpg' height='90'> <img src='G_4.jpg' height='90'> <img src='G_5.jpg' height='90'> <img src='G_8.jpg' height='90'>","null","Animation1",""
"","","","","","html-keyboard-response","83","49295","0.0-79.0","29","1","2025-01-25 08:13:13","af8d355d56820e421d246a7037deb6e6","73.231.147.146","Mozilla/5.0 (Windows NT 10.0; Win64; x64) AppleWebKit/537.36 (KHTML, like Gecko) Chrome/131.0.0.0 Safari/537.36","WebKit","Chrome","131.0.0.0","Windows","10.0","https://app.prolific.com/","en,zh-CN;q=0.9,zh;q=0.8,ja;q=0.7,zh-TW;q=0.6","6500b3922f1493c553f2037f","67949641171f97c04e14fb34","0eyrvjnk9si","","null","<img    src='G_6.jpg' height='90'> <img id='selected'    src='G_7.jpg' height='90'> <img   src='G_3.jpg' height='90'> <img     src='G_2.jpg' height='90'> <img     src='G_1.jpg' height='90'> <img src='G_4.jpg' height='90'> <img src='G_5.jpg' height='90'> <img src='G_8.jpg' height='90'>","null","Animation1",""
"","","","","","html-keyboard-response","84","49811","0.0-80.0","29","1","2025-01-25 08:13:13","af8d355d56820e421d246a7037deb6e6","73.231.147.146","Mozilla/5.0 (Windows NT 10.0; Win64; x64) AppleWebKit/537.36 (KHTML, like Gecko) Chrome/131.0.0.0 Safari/537.36","WebKit","Chrome","131.0.0.0","Windows","10.0","https://app.prolific.com/","en,zh-CN;q=0.9,zh;q=0.8,ja;q=0.7,zh-TW;q=0.6","6500b3922f1493c553f2037f","67949641171f97c04e14fb34","0eyrvjnk9si","","null","<img    src='G_6.jpg' height='90'> <img id='selected'    src='G_7.jpg' height='90'> <img id='selected'   src='G_3.jpg' height='90'> <img     src='G_2.jpg' height='90'> <img     src='G_1.jpg' height='90'> <img src='G_4.jpg' height='90'> <img src='G_5.jpg' height='90'> <img src='G_8.jpg' height='90'>","null","Animation1",""
"","","","","","html-keyboard-response","85","50319","0.0-81.0","29","1","2025-01-25 08:13:13","af8d355d56820e421d246a7037deb6e6","73.231.147.146","Mozilla/5.0 (Windows NT 10.0; Win64; x64) AppleWebKit/537.36 (KHTML, like Gecko) Chrome/131.0.0.0 Safari/537.36","WebKit","Chrome","131.0.0.0","Windows","10.0","https://app.prolific.com/","en,zh-CN;q=0.9,zh;q=0.8,ja;q=0.7,zh-TW;q=0.6","6500b3922f1493c553f2037f","67949641171f97c04e14fb34","0eyrvjnk9si","","null","<img    src='G_6.jpg' height='90'> <img id='swapped'   src='G_3.jpg' height='90'> <img id='swapped'    src='G_7.jpg' height='90'> <img     src='G_2.jpg' height='90'> <img     src='G_1.jpg' height='90'> <img src='G_4.jpg' height='90'> <img src='G_5.jpg' height='90'> <img src='G_8.jpg' height='90'>","null","Animation1",""
"","","","","","html-keyboard-response","86","50644","0.0-82.0","29","1","2025-01-25 08:13:13","af8d355d56820e421d246a7037deb6e6","73.231.147.146","Mozilla/5.0 (Windows NT 10.0; Win64; x64) AppleWebKit/537.36 (KHTML, like Gecko) Chrome/131.0.0.0 Safari/537.36","WebKit","Chrome","131.0.0.0","Windows","10.0","https://app.prolific.com/","en,zh-CN;q=0.9,zh;q=0.8,ja;q=0.7,zh-TW;q=0.6","6500b3922f1493c553f2037f","67949641171f97c04e14fb34","0eyrvjnk9si","","null","<img    src='G_6.jpg' height='90'> <img    src='G_3.jpg' height='90'> <img     src='G_7.jpg' height='90'> <img     src='G_2.jpg' height='90'> <img     src='G_1.jpg' height='90'> <img src='G_4.jpg' height='90'> <img src='G_5.jpg' height='90'> <img src='G_8.jpg' height='90'>","null","Animation1",""
"","","","","","html-keyboard-response","87","51159","0.0-83.0","29","1","2025-01-25 08:13:13","af8d355d56820e421d246a7037deb6e6","73.231.147.146","Mozilla/5.0 (Windows NT 10.0; Win64; x64) AppleWebKit/537.36 (KHTML, like Gecko) Chrome/131.0.0.0 Safari/537.36","WebKit","Chrome","131.0.0.0","Windows","10.0","https://app.prolific.com/","en,zh-CN;q=0.9,zh;q=0.8,ja;q=0.7,zh-TW;q=0.6","6500b3922f1493c553f2037f","67949641171f97c04e14fb34","0eyrvjnk9si","","null","<img id='selected'    src='G_6.jpg' height='90'> <img    src='G_3.jpg' height='90'> <img     src='G_7.jpg' height='90'> <img     src='G_2.jpg' height='90'> <img     src='G_1.jpg' height='90'> <img src='G_4.jpg' height='90'> <img src='G_5.jpg' height='90'> <img src='G_8.jpg' height='90'>","null","Animation1",""
"","","","","","html-keyboard-response","88","51672","0.0-84.0","29","1","2025-01-25 08:13:13","af8d355d56820e421d246a7037deb6e6","73.231.147.146","Mozilla/5.0 (Windows NT 10.0; Win64; x64) AppleWebKit/537.36 (KHTML, like Gecko) Chrome/131.0.0.0 Safari/537.36","WebKit","Chrome","131.0.0.0","Windows","10.0","https://app.prolific.com/","en,zh-CN;q=0.9,zh;q=0.8,ja;q=0.7,zh-TW;q=0.6","6500b3922f1493c553f2037f","67949641171f97c04e14fb34","0eyrvjnk9si","","null","<img id='selected'    src='G_6.jpg' height='90'> <img id='selected'    src='G_3.jpg' height='90'> <img     src='G_7.jpg' height='90'> <img     src='G_2.jpg' height='90'> <img     src='G_1.jpg' height='90'> <img src='G_4.jpg' height='90'> <img src='G_5.jpg' height='90'> <img src='G_8.jpg' height='90'>","null","Animation1",""
"","","","","","html-keyboard-response","89","52184","0.0-85.0","29","1","2025-01-25 08:13:13","af8d355d56820e421d246a7037deb6e6","73.231.147.146","Mozilla/5.0 (Windows NT 10.0; Win64; x64) AppleWebKit/537.36 (KHTML, like Gecko) Chrome/131.0.0.0 Safari/537.36","WebKit","Chrome","131.0.0.0","Windows","10.0","https://app.prolific.com/","en,zh-CN;q=0.9,zh;q=0.8,ja;q=0.7,zh-TW;q=0.6","6500b3922f1493c553f2037f","67949641171f97c04e14fb34","0eyrvjnk9si","","null","<img id='selected'    src='G_6.jpg' height='90'> <img id='selected'    src='G_3.jpg' height='90'> <img     src='G_7.jpg' height='90'> <img     src='G_2.jpg' height='90'> <img     src='G_1.jpg' height='90'> <img src='G_4.jpg' height='90'> <img src='G_5.jpg' height='90'> <img src='G_8.jpg' height='90'>","null","Animation1",""
"","","","","","html-keyboard-response","90","52497","0.0-86.0","29","1","2025-01-25 08:13:13","af8d355d56820e421d246a7037deb6e6","73.231.147.146","Mozilla/5.0 (Windows NT 10.0; Win64; x64) AppleWebKit/537.36 (KHTML, like Gecko) Chrome/131.0.0.0 Safari/537.36","WebKit","Chrome","131.0.0.0","Windows","10.0","https://app.prolific.com/","en,zh-CN;q=0.9,zh;q=0.8,ja;q=0.7,zh-TW;q=0.6","6500b3922f1493c553f2037f","67949641171f97c04e14fb34","0eyrvjnk9si","","null","<img     src='G_6.jpg' height='90'> <img     src='G_3.jpg' height='90'> <img     src='G_7.jpg' height='90'> <img     src='G_2.jpg' height='90'> <img     src='G_1.jpg' height='90'> <img src='G_4.jpg' height='90'> <img src='G_5.jpg' height='90'> <img src='G_8.jpg' height='90'>","null","Animation1",""
"","","","","","html-keyboard-response","91","53013","0.0-87.0","29","1","2025-01-25 08:13:13","af8d355d56820e421d246a7037deb6e6","73.231.147.146","Mozilla/5.0 (Windows NT 10.0; Win64; x64) AppleWebKit/537.36 (KHTML, like Gecko) Chrome/131.0.0.0 Safari/537.36","WebKit","Chrome","131.0.0.0","Windows","10.0","https://app.prolific.com/","en,zh-CN;q=0.9,zh;q=0.8,ja;q=0.7,zh-TW;q=0.6","6500b3922f1493c553f2037f","67949641171f97c04e14fb34","0eyrvjnk9si","","null","<img     src='G_6.jpg' height='90'> <img     src='G_3.jpg' height='90'> <img     src='G_7.jpg' height='90'> <img     src='G_2.jpg' height='90'> <img id='selected'     src='G_1.jpg' height='90'> <img src='G_4.jpg' height='90'> <img src='G_5.jpg' height='90'> <img src='G_8.jpg' height='90'>","null","Animation1",""
"","","","","","html-keyboard-response","92","53526","0.0-88.0","29","1","2025-01-25 08:13:13","af8d355d56820e421d246a7037deb6e6","73.231.147.146","Mozilla/5.0 (Windows NT 10.0; Win64; x64) AppleWebKit/537.36 (KHTML, like Gecko) Chrome/131.0.0.0 Safari/537.36","WebKit","Chrome","131.0.0.0","Windows","10.0","https://app.prolific.com/","en,zh-CN;q=0.9,zh;q=0.8,ja;q=0.7,zh-TW;q=0.6","6500b3922f1493c553f2037f","67949641171f97c04e14fb34","0eyrvjnk9si","","null","<img     src='G_6.jpg' height='90'> <img     src='G_3.jpg' height='90'> <img     src='G_7.jpg' height='90'> <img     src='G_2.jpg' height='90'> <img id='selected'     src='G_1.jpg' height='90'> <img id='selected' src='G_4.jpg' height='90'> <img src='G_5.jpg' height='90'> <img src='G_8.jpg' height='90'>","null","Animation1",""
"","","","","","html-keyboard-response","93","54039","0.0-89.0","29","1","2025-01-25 08:13:13","af8d355d56820e421d246a7037deb6e6","73.231.147.146","Mozilla/5.0 (Windows NT 10.0; Win64; x64) AppleWebKit/537.36 (KHTML, like Gecko) Chrome/131.0.0.0 Safari/537.36","WebKit","Chrome","131.0.0.0","Windows","10.0","https://app.prolific.com/","en,zh-CN;q=0.9,zh;q=0.8,ja;q=0.7,zh-TW;q=0.6","6500b3922f1493c553f2037f","67949641171f97c04e14fb34","0eyrvjnk9si","","null","<img     src='G_6.jpg' height='90'> <img     src='G_3.jpg' height='90'> <img     src='G_7.jpg' height='90'> <img     src='G_2.jpg' height='90'> <img id='swapped' src='G_4.jpg' height='90'> <img id='swapped'     src='G_1.jpg' height='90'> <img src='G_5.jpg' height='90'> <img src='G_8.jpg' height='90'>","null","Animation1",""
"","","","","","html-keyboard-response","94","54350","0.0-90.0","29","1","2025-01-25 08:13:13","af8d355d56820e421d246a7037deb6e6","73.231.147.146","Mozilla/5.0 (Windows NT 10.0; Win64; x64) AppleWebKit/537.36 (KHTML, like Gecko) Chrome/131.0.0.0 Safari/537.36","WebKit","Chrome","131.0.0.0","Windows","10.0","https://app.prolific.com/","en,zh-CN;q=0.9,zh;q=0.8,ja;q=0.7,zh-TW;q=0.6","6500b3922f1493c553f2037f","67949641171f97c04e14fb34","0eyrvjnk9si","","null","<img     src='G_6.jpg' height='90'> <img     src='G_3.jpg' height='90'> <img     src='G_7.jpg' height='90'> <img     src='G_2.jpg' height='90'> <img  src='G_4.jpg' height='90'> <img      src='G_1.jpg' height='90'> <img src='G_5.jpg' height='90'> <img src='G_8.jpg' height='90'>","null","Animation1",""
"","","","","","html-keyboard-response","95","54866","0.0-91.0","29","1","2025-01-25 08:13:13","af8d355d56820e421d246a7037deb6e6","73.231.147.146","Mozilla/5.0 (Windows NT 10.0; Win64; x64) AppleWebKit/537.36 (KHTML, like Gecko) Chrome/131.0.0.0 Safari/537.36","WebKit","Chrome","131.0.0.0","Windows","10.0","https://app.prolific.com/","en,zh-CN;q=0.9,zh;q=0.8,ja;q=0.7,zh-TW;q=0.6","6500b3922f1493c553f2037f","67949641171f97c04e14fb34","0eyrvjnk9si","","null","<img     src='G_6.jpg' height='90'> <img     src='G_3.jpg' height='90'> <img     src='G_7.jpg' height='90'> <img id='selected'     src='G_2.jpg' height='90'> <img  src='G_4.jpg' height='90'> <img      src='G_1.jpg' height='90'> <img src='G_5.jpg' height='90'> <img src='G_8.jpg' height='90'>","null","Animation1",""
"","","","","","html-keyboard-response","96","55378","0.0-92.0","29","1","2025-01-25 08:13:13","af8d355d56820e421d246a7037deb6e6","73.231.147.146","Mozilla/5.0 (Windows NT 10.0; Win64; x64) AppleWebKit/537.36 (KHTML, like Gecko) Chrome/131.0.0.0 Safari/537.36","WebKit","Chrome","131.0.0.0","Windows","10.0","https://app.prolific.com/","en,zh-CN;q=0.9,zh;q=0.8,ja;q=0.7,zh-TW;q=0.6","6500b3922f1493c553f2037f","67949641171f97c04e14fb34","0eyrvjnk9si","","null","<img     src='G_6.jpg' height='90'> <img     src='G_3.jpg' height='90'> <img     src='G_7.jpg' height='90'> <img id='selected'     src='G_2.jpg' height='90'> <img id='selected'  src='G_4.jpg' height='90'> <img      src='G_1.jpg' height='90'> <img src='G_5.jpg' height='90'> <img src='G_8.jpg' height='90'>","null","Animation1",""
"","","","","","html-keyboard-response","97","55892","0.0-93.0","29","1","2025-01-25 08:13:13","af8d355d56820e421d246a7037deb6e6","73.231.147.146","Mozilla/5.0 (Windows NT 10.0; Win64; x64) AppleWebKit/537.36 (KHTML, like Gecko) Chrome/131.0.0.0 Safari/537.36","WebKit","Chrome","131.0.0.0","Windows","10.0","https://app.prolific.com/","en,zh-CN;q=0.9,zh;q=0.8,ja;q=0.7,zh-TW;q=0.6","6500b3922f1493c553f2037f","67949641171f97c04e14fb34","0eyrvjnk9si","","null","<img     src='G_6.jpg' height='90'> <img     src='G_3.jpg' height='90'> <img     src='G_7.jpg' height='90'> <img id='selected'     src='G_2.jpg' height='90'> <img id='selected'  src='G_4.jpg' height='90'> <img      src='G_1.jpg' height='90'> <img src='G_5.jpg' height='90'> <img src='G_8.jpg' height='90'>","null","Animation1",""
"","","","","","html-keyboard-response","98","56206","0.0-94.0","29","1","2025-01-25 08:13:13","af8d355d56820e421d246a7037deb6e6","73.231.147.146","Mozilla/5.0 (Windows NT 10.0; Win64; x64) AppleWebKit/537.36 (KHTML, like Gecko) Chrome/131.0.0.0 Safari/537.36","WebKit","Chrome","131.0.0.0","Windows","10.0","https://app.prolific.com/","en,zh-CN;q=0.9,zh;q=0.8,ja;q=0.7,zh-TW;q=0.6","6500b3922f1493c553f2037f","67949641171f97c04e14fb34","0eyrvjnk9si","","null","<img     src='G_6.jpg' height='90'> <img     src='G_3.jpg' height='90'> <img     src='G_7.jpg' height='90'> <img      src='G_2.jpg' height='90'> <img   src='G_4.jpg' height='90'> <img      src='G_1.jpg' height='90'> <img src='G_5.jpg' height='90'> <img src='G_8.jpg' height='90'>","null","Animation1",""
"","","","","","html-keyboard-response","99","56721","0.0-95.0","29","1","2025-01-25 08:13:13","af8d355d56820e421d246a7037deb6e6","73.231.147.146","Mozilla/5.0 (Windows NT 10.0; Win64; x64) AppleWebKit/537.36 (KHTML, like Gecko) Chrome/131.0.0.0 Safari/537.36","WebKit","Chrome","131.0.0.0","Windows","10.0","https://app.prolific.com/","en,zh-CN;q=0.9,zh;q=0.8,ja;q=0.7,zh-TW;q=0.6","6500b3922f1493c553f2037f","67949641171f97c04e14fb34","0eyrvjnk9si","","null","<img     src='G_6.jpg' height='90'> <img     src='G_3.jpg' height='90'> <img     src='G_7.jpg' height='90'> <img      src='G_2.jpg' height='90'> <img   src='G_4.jpg' height='90'> <img id='selected'      src='G_1.jpg' height='90'> <img src='G_5.jpg' height='90'> <img src='G_8.jpg' height='90'>","null","Animation1",""
"","","","","","html-keyboard-response","100","57235","0.0-96.0","29","1","2025-01-25 08:13:13","af8d355d56820e421d246a7037deb6e6","73.231.147.146","Mozilla/5.0 (Windows NT 10.0; Win64; x64) AppleWebKit/537.36 (KHTML, like Gecko) Chrome/131.0.0.0 Safari/537.36","WebKit","Chrome","131.0.0.0","Windows","10.0","https://app.prolific.com/","en,zh-CN;q=0.9,zh;q=0.8,ja;q=0.7,zh-TW;q=0.6","6500b3922f1493c553f2037f","67949641171f97c04e14fb34","0eyrvjnk9si","","null","<img     src='G_6.jpg' height='90'> <img     src='G_3.jpg' height='90'> <img     src='G_7.jpg' height='90'> <img      src='G_2.jpg' height='90'> <img   src='G_4.jpg' height='90'> <img id='selected'      src='G_1.jpg' height='90'> <img id='selected' src='G_5.jpg' height='90'> <img src='G_8.jpg' height='90'>","null","Animation1",""
"","","","","","html-keyboard-response","101","57752","0.0-97.0","29","1","2025-01-25 08:13:13","af8d355d56820e421d246a7037deb6e6","73.231.147.146","Mozilla/5.0 (Windows NT 10.0; Win64; x64) AppleWebKit/537.36 (KHTML, like Gecko) Chrome/131.0.0.0 Safari/537.36","WebKit","Chrome","131.0.0.0","Windows","10.0","https://app.prolific.com/","en,zh-CN;q=0.9,zh;q=0.8,ja;q=0.7,zh-TW;q=0.6","6500b3922f1493c553f2037f","67949641171f97c04e14fb34","0eyrvjnk9si","","null","<img     src='G_6.jpg' height='90'> <img     src='G_3.jpg' height='90'> <img     src='G_7.jpg' height='90'> <img      src='G_2.jpg' height='90'> <img   src='G_4.jpg' height='90'> <img id='selected'      src='G_1.jpg' height='90'> <img id='selected' src='G_5.jpg' height='90'> <img src='G_8.jpg' height='90'>","null","Animation1",""
"","","","","","html-keyboard-response","102","58063","0.0-98.0","29","1","2025-01-25 08:13:13","af8d355d56820e421d246a7037deb6e6","73.231.147.146","Mozilla/5.0 (Windows NT 10.0; Win64; x64) AppleWebKit/537.36 (KHTML, like Gecko) Chrome/131.0.0.0 Safari/537.36","WebKit","Chrome","131.0.0.0","Windows","10.0","https://app.prolific.com/","en,zh-CN;q=0.9,zh;q=0.8,ja;q=0.7,zh-TW;q=0.6","6500b3922f1493c553f2037f","67949641171f97c04e14fb34","0eyrvjnk9si","","null","<img     src='G_6.jpg' height='90'> <img     src='G_3.jpg' height='90'> <img     src='G_7.jpg' height='90'> <img      src='G_2.jpg' height='90'> <img   src='G_4.jpg' height='90'> <img       src='G_1.jpg' height='90'> <img  src='G_5.jpg' height='90'> <img src='G_8.jpg' height='90'>","null","Animation1",""
"","","","","","html-keyboard-response","103","58577","0.0-99.0","29","1","2025-01-25 08:13:13","af8d355d56820e421d246a7037deb6e6","73.231.147.146","Mozilla/5.0 (Windows NT 10.0; Win64; x64) AppleWebKit/537.36 (KHTML, like Gecko) Chrome/131.0.0.0 Safari/537.36","WebKit","Chrome","131.0.0.0","Windows","10.0","https://app.prolific.com/","en,zh-CN;q=0.9,zh;q=0.8,ja;q=0.7,zh-TW;q=0.6","6500b3922f1493c553f2037f","67949641171f97c04e14fb34","0eyrvjnk9si","","null","<img     src='G_6.jpg' height='90'> <img     src='G_3.jpg' height='90'> <img     src='G_7.jpg' height='90'> <img      src='G_2.jpg' height='90'> <img   src='G_4.jpg' height='90'> <img       src='G_1.jpg' height='90'> <img id='selected'  src='G_5.jpg' height='90'> <img src='G_8.jpg' height='90'>","null","Animation1",""
"","","","","","html-keyboard-response","104","59090","0.0-100.0","29","1","2025-01-25 08:13:13","af8d355d56820e421d246a7037deb6e6","73.231.147.146","Mozilla/5.0 (Windows NT 10.0; Win64; x64) AppleWebKit/537.36 (KHTML, like Gecko) Chrome/131.0.0.0 Safari/537.36","WebKit","Chrome","131.0.0.0","Windows","10.0","https://app.prolific.com/","en,zh-CN;q=0.9,zh;q=0.8,ja;q=0.7,zh-TW;q=0.6","6500b3922f1493c553f2037f","67949641171f97c04e14fb34","0eyrvjnk9si","","null","<img     src='G_6.jpg' height='90'> <img     src='G_3.jpg' height='90'> <img     src='G_7.jpg' height='90'> <img      src='G_2.jpg' height='90'> <img   src='G_4.jpg' height='90'> <img       src='G_1.jpg' height='90'> <img id='selected'  src='G_5.jpg' height='90'> <img id='selected' src='G_8.jpg' height='90'>","null","Animation1",""
"","","","","","html-keyboard-response","105","59605","0.0-101.0","29","1","2025-01-25 08:13:13","af8d355d56820e421d246a7037deb6e6","73.231.147.146","Mozilla/5.0 (Windows NT 10.0; Win64; x64) AppleWebKit/537.36 (KHTML, like Gecko) Chrome/131.0.0.0 Safari/537.36","WebKit","Chrome","131.0.0.0","Windows","10.0","https://app.prolific.com/","en,zh-CN;q=0.9,zh;q=0.8,ja;q=0.7,zh-TW;q=0.6","6500b3922f1493c553f2037f","67949641171f97c04e14fb34","0eyrvjnk9si","","null","<img     src='G_6.jpg' height='90'> <img     src='G_3.jpg' height='90'> <img     src='G_7.jpg' height='90'> <img      src='G_2.jpg' height='90'> <img   src='G_4.jpg' height='90'> <img       src='G_1.jpg' height='90'> <img id='swapped' src='G_8.jpg' height='90'> <img id='swapped'  src='G_5.jpg' height='90'>","null","Animation1",""
"","","","","","html-keyboard-response","106","59916","0.0-102.0","29","1","2025-01-25 08:13:13","af8d355d56820e421d246a7037deb6e6","73.231.147.146","Mozilla/5.0 (Windows NT 10.0; Win64; x64) AppleWebKit/537.36 (KHTML, like Gecko) Chrome/131.0.0.0 Safari/537.36","WebKit","Chrome","131.0.0.0","Windows","10.0","https://app.prolific.com/","en,zh-CN;q=0.9,zh;q=0.8,ja;q=0.7,zh-TW;q=0.6","6500b3922f1493c553f2037f","67949641171f97c04e14fb34","0eyrvjnk9si","","null","<img     src='G_6.jpg' height='90'> <img     src='G_3.jpg' height='90'> <img     src='G_7.jpg' height='90'> <img      src='G_2.jpg' height='90'> <img   src='G_4.jpg' height='90'> <img       src='G_1.jpg' height='90'> <img  src='G_8.jpg' height='90'> <img   src='G_5.jpg' height='90'>","null","Animation1",""
"","","","","","html-keyboard-response","107","60432","0.0-103.0","29","1","2025-01-25 08:13:13","af8d355d56820e421d246a7037deb6e6","73.231.147.146","Mozilla/5.0 (Windows NT 10.0; Win64; x64) AppleWebKit/537.36 (KHTML, like Gecko) Chrome/131.0.0.0 Safari/537.36","WebKit","Chrome","131.0.0.0","Windows","10.0","https://app.prolific.com/","en,zh-CN;q=0.9,zh;q=0.8,ja;q=0.7,zh-TW;q=0.6","6500b3922f1493c553f2037f","67949641171f97c04e14fb34","0eyrvjnk9si","","null","<img     src='G_6.jpg' height='90'> <img     src='G_3.jpg' height='90'> <img     src='G_7.jpg' height='90'> <img      src='G_2.jpg' height='90'> <img   src='G_4.jpg' height='90'> <img id='selected'       src='G_1.jpg' height='90'> <img  src='G_8.jpg' height='90'> <img   src='G_5.jpg' height='90'>","null","Animation1",""
"","","","","","html-keyboard-response","108","60949","0.0-104.0","29","1","2025-01-25 08:13:13","af8d355d56820e421d246a7037deb6e6","73.231.147.146","Mozilla/5.0 (Windows NT 10.0; Win64; x64) AppleWebKit/537.36 (KHTML, like Gecko) Chrome/131.0.0.0 Safari/537.36","WebKit","Chrome","131.0.0.0","Windows","10.0","https://app.prolific.com/","en,zh-CN;q=0.9,zh;q=0.8,ja;q=0.7,zh-TW;q=0.6","6500b3922f1493c553f2037f","67949641171f97c04e14fb34","0eyrvjnk9si","","null","<img     src='G_6.jpg' height='90'> <img     src='G_3.jpg' height='90'> <img     src='G_7.jpg' height='90'> <img      src='G_2.jpg' height='90'> <img   src='G_4.jpg' height='90'> <img id='selected'       src='G_1.jpg' height='90'> <img id='selected'  src='G_8.jpg' height='90'> <img   src='G_5.jpg' height='90'>","null","Animation1",""
"","","","","","html-keyboard-response","109","61465","0.0-105.0","29","1","2025-01-25 08:13:13","af8d355d56820e421d246a7037deb6e6","73.231.147.146","Mozilla/5.0 (Windows NT 10.0; Win64; x64) AppleWebKit/537.36 (KHTML, like Gecko) Chrome/131.0.0.0 Safari/537.36","WebKit","Chrome","131.0.0.0","Windows","10.0","https://app.prolific.com/","en,zh-CN;q=0.9,zh;q=0.8,ja;q=0.7,zh-TW;q=0.6","6500b3922f1493c553f2037f","67949641171f97c04e14fb34","0eyrvjnk9si","","null","<img     src='G_6.jpg' height='90'> <img     src='G_3.jpg' height='90'> <img     src='G_7.jpg' height='90'> <img      src='G_2.jpg' height='90'> <img   src='G_4.jpg' height='90'> <img id='selected'       src='G_1.jpg' height='90'> <img id='selected'  src='G_8.jpg' height='90'> <img   src='G_5.jpg' height='90'>","null","Animation1",""
"","","","","","html-keyboard-response","110","61775","0.0-106.0","29","1","2025-01-25 08:13:13","af8d355d56820e421d246a7037deb6e6","73.231.147.146","Mozilla/5.0 (Windows NT 10.0; Win64; x64) AppleWebKit/537.36 (KHTML, like Gecko) Chrome/131.0.0.0 Safari/537.36","WebKit","Chrome","131.0.0.0","Windows","10.0","https://app.prolific.com/","en,zh-CN;q=0.9,zh;q=0.8,ja;q=0.7,zh-TW;q=0.6","6500b3922f1493c553f2037f","67949641171f97c04e14fb34","0eyrvjnk9si","","null","<img     src='G_6.jpg' height='90'> <img     src='G_3.jpg' height='90'> <img     src='G_7.jpg' height='90'> <img      src='G_2.jpg' height='90'> <img   src='G_4.jpg' height='90'> <img        src='G_1.jpg' height='90'> <img   src='G_8.jpg' height='90'> <img   src='G_5.jpg' height='90'>","null","Animation1",""
"","","","","","html-keyboard-response","111","64500","0.0-107.0","29","1","2025-01-25 08:13:13","af8d355d56820e421d246a7037deb6e6","73.231.147.146","Mozilla/5.0 (Windows NT 10.0; Win64; x64) AppleWebKit/537.36 (KHTML, like Gecko) Chrome/131.0.0.0 Safari/537.36","WebKit","Chrome","131.0.0.0","Windows","10.0","https://app.prolific.com/","en,zh-CN;q=0.9,zh;q=0.8,ja;q=0.7,zh-TW;q=0.6","6500b3922f1493c553f2037f","67949641171f97c04e14fb34","0eyrvjnk9si","","2718","[""Did you notice any patterns? <br><br>Press Enter to watch that example again and follow the steps of Omgne Sort.""]","enter","",""
"","","","","","html-button-response","112","64906","0.0-108.0","29","1","2025-01-25 08:13:13","af8d355d56820e421d246a7037deb6e6","73.231.147.146","Mozilla/5.0 (Windows NT 10.0; Win64; x64) AppleWebKit/537.36 (KHTML, like Gecko) Chrome/131.0.0.0 Safari/537.36","WebKit","Chrome","131.0.0.0","Windows","10.0","https://app.prolific.com/","en,zh-CN;q=0.9,zh;q=0.8,ja;q=0.7,zh-TW;q=0.6","6500b3922f1493c553f2037f","67949641171f97c04e14fb34","0eyrvjnk9si","","null","<img id='selected' src='G_2.jpg' height='90'> <img src='G_1.jpg' height='90'> <img src='G_7.jpg' height='90'> <img src='G_6.jpg' height='90'> <img src='G_3.jpg' height='90'> <img src='G_4.jpg' height='90'> <img src='G_5.jpg' height='90'> <img src='G_8.jpg' height='90'>","null","Learning example 1",""
"","","","","","html-button-response","113","65218","0.0-109.0","29","1","2025-01-25 08:13:13","af8d355d56820e421d246a7037deb6e6","73.231.147.146","Mozilla/5.0 (Windows NT 10.0; Win64; x64) AppleWebKit/537.36 (KHTML, like Gecko) Chrome/131.0.0.0 Safari/537.36","WebKit","Chrome","131.0.0.0","Windows","10.0","https://app.prolific.com/","en,zh-CN;q=0.9,zh;q=0.8,ja;q=0.7,zh-TW;q=0.6","6500b3922f1493c553f2037f","67949641171f97c04e14fb34","0eyrvjnk9si","","null","<img id='selected' src='G_2.jpg' height='90'> <img id='selected' src='G_1.jpg' height='90'> <img src='G_7.jpg' height='90'> <img src='G_6.jpg' height='90'> <img src='G_3.jpg' height='90'> <img src='G_4.jpg' height='90'> <img src='G_5.jpg' height='90'> <img src='G_8.jpg' height='90'>","null","Learning example 1",""
"","","","","","html-button-response","114","65527","0.0-110.0","29","1","2025-01-25 08:13:13","af8d355d56820e421d246a7037deb6e6","73.231.147.146","Mozilla/5.0 (Windows NT 10.0; Win64; x64) AppleWebKit/537.36 (KHTML, like Gecko) Chrome/131.0.0.0 Safari/537.36","WebKit","Chrome","131.0.0.0","Windows","10.0","https://app.prolific.com/","en,zh-CN;q=0.9,zh;q=0.8,ja;q=0.7,zh-TW;q=0.6","6500b3922f1493c553f2037f","67949641171f97c04e14fb34","0eyrvjnk9si","","null","<img id='selected' src='G_2.jpg' height='90'> <img id='selected' src='G_1.jpg' height='90'> <img src='G_7.jpg' height='90'> <img src='G_6.jpg' height='90'> <img src='G_3.jpg' height='90'> <img src='G_4.jpg' height='90'> <img src='G_5.jpg' height='90'> <img src='G_8.jpg' height='90'>","null","Learning example 1",""
"","","","","","html-button-response","115","66020","0.0-111.0-0.0-0.0","29","1","2025-01-25 08:13:13","af8d355d56820e421d246a7037deb6e6","73.231.147.146","Mozilla/5.0 (Windows NT 10.0; Win64; x64) AppleWebKit/537.36 (KHTML, like Gecko) Chrome/131.0.0.0 Safari/537.36","WebKit","Chrome","131.0.0.0","Windows","10.0","https://app.prolific.com/","en,zh-CN;q=0.9,zh;q=0.8,ja;q=0.7,zh-TW;q=0.6","6500b3922f1493c553f2037f","67949641171f97c04e14fb34","0eyrvjnk9si","","487","<img id='selected' src='G_2.jpg' height='90'> <img id='selected' src='G_1.jpg' height='90'> <img src='G_7.jpg' height='90'> <img src='G_6.jpg' height='90'> <img src='G_3.jpg' height='90'> <img src='G_4.jpg' height='90'> <img src='G_5.jpg' height='90'> <img src='G_8.jpg' height='90'>","0","Learning example 1",""
"","","","","","html-button-response","116","66274","0.0-111.1-0.1-0.1","29","1","2025-01-25 08:13:13","af8d355d56820e421d246a7037deb6e6","73.231.147.146","Mozilla/5.0 (Windows NT 10.0; Win64; x64) AppleWebKit/537.36 (KHTML, like Gecko) Chrome/131.0.0.0 Safari/537.36","WebKit","Chrome","131.0.0.0","Windows","10.0","https://app.prolific.com/","en,zh-CN;q=0.9,zh;q=0.8,ja;q=0.7,zh-TW;q=0.6","6500b3922f1493c553f2037f","67949641171f97c04e14fb34","0eyrvjnk9si","","251","<img id='selected' src='G_2.jpg' height='90'> <img id='selected' src='G_1.jpg' height='90'> <img src='G_7.jpg' height='90'> <img src='G_6.jpg' height='90'> <img src='G_3.jpg' height='90'> <img src='G_4.jpg' height='90'> <img src='G_5.jpg' height='90'> <img src='G_8.jpg' height='90'>","1","Learning example 1",""
"","","","","","html-button-response","117","66479","0.0-112.0","29","1","2025-01-25 08:13:13","af8d355d56820e421d246a7037deb6e6","73.231.147.146","Mozilla/5.0 (Windows NT 10.0; Win64; x64) AppleWebKit/537.36 (KHTML, like Gecko) Chrome/131.0.0.0 Safari/537.36","WebKit","Chrome","131.0.0.0","Windows","10.0","https://app.prolific.com/","en,zh-CN;q=0.9,zh;q=0.8,ja;q=0.7,zh-TW;q=0.6","6500b3922f1493c553f2037f","67949641171f97c04e14fb34","0eyrvjnk9si","","null","<img  src='G_2.jpg' height='90'> <img  src='G_1.jpg' height='90'> <img src='G_7.jpg' height='90'> <img src='G_6.jpg' height='90'> <img src='G_3.jpg' height='90'> <img src='G_4.jpg' height='90'> <img src='G_5.jpg' height='90'> <img src='G_8.jpg' height='90'>","null","Learning example 1",""
"","","","","","html-button-response","118","66889","0.0-113.0","29","1","2025-01-25 08:13:13","af8d355d56820e421d246a7037deb6e6","73.231.147.146","Mozilla/5.0 (Windows NT 10.0; Win64; x64) AppleWebKit/537.36 (KHTML, like Gecko) Chrome/131.0.0.0 Safari/537.36","WebKit","Chrome","131.0.0.0","Windows","10.0","https://app.prolific.com/","en,zh-CN;q=0.9,zh;q=0.8,ja;q=0.7,zh-TW;q=0.6","6500b3922f1493c553f2037f","67949641171f97c04e14fb34","0eyrvjnk9si","","null","<img  src='G_2.jpg' height='90'> <img id='selected'  src='G_1.jpg' height='90'> <img src='G_7.jpg' height='90'> <img src='G_6.jpg' height='90'> <img src='G_3.jpg' height='90'> <img src='G_4.jpg' height='90'> <img src='G_5.jpg' height='90'> <img src='G_8.jpg' height='90'>","null","Learning example 1",""
"","","","","","html-button-response","119","67192","0.0-114.0","29","1","2025-01-25 08:13:13","af8d355d56820e421d246a7037deb6e6","73.231.147.146","Mozilla/5.0 (Windows NT 10.0; Win64; x64) AppleWebKit/537.36 (KHTML, like Gecko) Chrome/131.0.0.0 Safari/537.36","WebKit","Chrome","131.0.0.0","Windows","10.0","https://app.prolific.com/","en,zh-CN;q=0.9,zh;q=0.8,ja;q=0.7,zh-TW;q=0.6","6500b3922f1493c553f2037f","67949641171f97c04e14fb34","0eyrvjnk9si","","null","<img  src='G_2.jpg' height='90'> <img id='selected'  src='G_1.jpg' height='90'> <img id='selected' src='G_7.jpg' height='90'> <img src='G_6.jpg' height='90'> <img src='G_3.jpg' height='90'> <img src='G_4.jpg' height='90'> <img src='G_5.jpg' height='90'> <img src='G_8.jpg' height='90'>","null","Learning example 1",""
"","","","","","html-button-response","120","67505","0.0-115.0","29","1","2025-01-25 08:13:13","af8d355d56820e421d246a7037deb6e6","73.231.147.146","Mozilla/5.0 (Windows NT 10.0; Win64; x64) AppleWebKit/537.36 (KHTML, like Gecko) Chrome/131.0.0.0 Safari/537.36","WebKit","Chrome","131.0.0.0","Windows","10.0","https://app.prolific.com/","en,zh-CN;q=0.9,zh;q=0.8,ja;q=0.7,zh-TW;q=0.6","6500b3922f1493c553f2037f","67949641171f97c04e14fb34","0eyrvjnk9si","","null","<img  src='G_2.jpg' height='90'> <img id='swapped' src='G_7.jpg' height='90'> <img id='swapped'  src='G_1.jpg' height='90'> <img src='G_6.jpg' height='90'> <img src='G_3.jpg' height='90'> <img src='G_4.jpg' height='90'> <img src='G_5.jpg' height='90'> <img src='G_8.jpg' height='90'>","null","Learning example 1",""
"","","","","","html-button-response","121","67652","0.0-116.0-0.0-0.0","29","1","2025-01-25 08:13:13","af8d355d56820e421d246a7037deb6e6","73.231.147.146","Mozilla/5.0 (Windows NT 10.0; Win64; x64) AppleWebKit/537.36 (KHTML, like Gecko) Chrome/131.0.0.0 Safari/537.36","WebKit","Chrome","131.0.0.0","Windows","10.0","https://app.prolific.com/","en,zh-CN;q=0.9,zh;q=0.8,ja;q=0.7,zh-TW;q=0.6","6500b3922f1493c553f2037f","67949641171f97c04e14fb34","0eyrvjnk9si","","145","<img  src='G_2.jpg' height='90'> <img id='swapped' src='G_7.jpg' height='90'> <img id='swapped'  src='G_1.jpg' height='90'> <img src='G_6.jpg' height='90'> <img src='G_3.jpg' height='90'> <img src='G_4.jpg' height='90'> <img src='G_5.jpg' height='90'> <img src='G_8.jpg' height='90'>","1","Learning example 1",""
"","","","","","html-button-response","122","67969","0.0-116.1-0.1-0.1","29","1","2025-01-25 08:13:13","af8d355d56820e421d246a7037deb6e6","73.231.147.146","Mozilla/5.0 (Windows NT 10.0; Win64; x64) AppleWebKit/537.36 (KHTML, like Gecko) Chrome/131.0.0.0 Safari/537.36","WebKit","Chrome","131.0.0.0","Windows","10.0","https://app.prolific.com/","en,zh-CN;q=0.9,zh;q=0.8,ja;q=0.7,zh-TW;q=0.6","6500b3922f1493c553f2037f","67949641171f97c04e14fb34","0eyrvjnk9si","","314","<img  src='G_2.jpg' height='90'> <img id='swapped' src='G_7.jpg' height='90'> <img id='swapped'  src='G_1.jpg' height='90'> <img src='G_6.jpg' height='90'> <img src='G_3.jpg' height='90'> <img src='G_4.jpg' height='90'> <img src='G_5.jpg' height='90'> <img src='G_8.jpg' height='90'>","2","Learning example 1",""
"","","","","","html-button-response","123","68176","0.0-117.0","29","1","2025-01-25 08:13:13","af8d355d56820e421d246a7037deb6e6","73.231.147.146","Mozilla/5.0 (Windows NT 10.0; Win64; x64) AppleWebKit/537.36 (KHTML, like Gecko) Chrome/131.0.0.0 Safari/537.36","WebKit","Chrome","131.0.0.0","Windows","10.0","https://app.prolific.com/","en,zh-CN;q=0.9,zh;q=0.8,ja;q=0.7,zh-TW;q=0.6","6500b3922f1493c553f2037f","67949641171f97c04e14fb34","0eyrvjnk9si","","null","<img  src='G_2.jpg' height='90'> <img  src='G_7.jpg' height='90'> <img   src='G_1.jpg' height='90'> <img src='G_6.jpg' height='90'> <img src='G_3.jpg' height='90'> <img src='G_4.jpg' height='90'> <img src='G_5.jpg' height='90'> <img src='G_8.jpg' height='90'>","null","Learning example 1",""
"","","","","","html-button-response","124","68582","0.0-118.0","29","1","2025-01-25 08:13:13","af8d355d56820e421d246a7037deb6e6","73.231.147.146","Mozilla/5.0 (Windows NT 10.0; Win64; x64) AppleWebKit/537.36 (KHTML, like Gecko) Chrome/131.0.0.0 Safari/537.36","WebKit","Chrome","131.0.0.0","Windows","10.0","https://app.prolific.com/","en,zh-CN;q=0.9,zh;q=0.8,ja;q=0.7,zh-TW;q=0.6","6500b3922f1493c553f2037f","67949641171f97c04e14fb34","0eyrvjnk9si","","null","<img id='selected'  src='G_2.jpg' height='90'> <img  src='G_7.jpg' height='90'> <img   src='G_1.jpg' height='90'> <img src='G_6.jpg' height='90'> <img src='G_3.jpg' height='90'> <img src='G_4.jpg' height='90'> <img src='G_5.jpg' height='90'> <img src='G_8.jpg' height='90'>","null","Learning example 1",""
"","","","","","html-button-response","125","68894","0.0-119.0","29","1","2025-01-25 08:13:13","af8d355d56820e421d246a7037deb6e6","73.231.147.146","Mozilla/5.0 (Windows NT 10.0; Win64; x64) AppleWebKit/537.36 (KHTML, like Gecko) Chrome/131.0.0.0 Safari/537.36","WebKit","Chrome","131.0.0.0","Windows","10.0","https://app.prolific.com/","en,zh-CN;q=0.9,zh;q=0.8,ja;q=0.7,zh-TW;q=0.6","6500b3922f1493c553f2037f","67949641171f97c04e14fb34","0eyrvjnk9si","","null","<img id='selected'  src='G_2.jpg' height='90'> <img id='selected'  src='G_7.jpg' height='90'> <img   src='G_1.jpg' height='90'> <img src='G_6.jpg' height='90'> <img src='G_3.jpg' height='90'> <img src='G_4.jpg' height='90'> <img src='G_5.jpg' height='90'> <img src='G_8.jpg' height='90'>","null","Learning example 1",""
"","","","","","html-button-response","126","69205","0.0-120.0","29","1","2025-01-25 08:13:13","af8d355d56820e421d246a7037deb6e6","73.231.147.146","Mozilla/5.0 (Windows NT 10.0; Win64; x64) AppleWebKit/537.36 (KHTML, like Gecko) Chrome/131.0.0.0 Safari/537.36","WebKit","Chrome","131.0.0.0","Windows","10.0","https://app.prolific.com/","en,zh-CN;q=0.9,zh;q=0.8,ja;q=0.7,zh-TW;q=0.6","6500b3922f1493c553f2037f","67949641171f97c04e14fb34","0eyrvjnk9si","","null","<img id='swapped'  src='G_7.jpg' height='90'> <img id='swapped'  src='G_2.jpg' height='90'> <img   src='G_1.jpg' height='90'> <img src='G_6.jpg' height='90'> <img src='G_3.jpg' height='90'> <img src='G_4.jpg' height='90'> <img src='G_5.jpg' height='90'> <img src='G_8.jpg' height='90'>","null","Learning example 1",""
"","","","","","html-button-response","127","69438","0.0-121.0-0.0-0.0","29","1","2025-01-25 08:13:13","af8d355d56820e421d246a7037deb6e6","73.231.147.146","Mozilla/5.0 (Windows NT 10.0; Win64; x64) AppleWebKit/537.36 (KHTML, like Gecko) Chrome/131.0.0.0 Safari/537.36","WebKit","Chrome","131.0.0.0","Windows","10.0","https://app.prolific.com/","en,zh-CN;q=0.9,zh;q=0.8,ja;q=0.7,zh-TW;q=0.6","6500b3922f1493c553f2037f","67949641171f97c04e14fb34","0eyrvjnk9si","","230","<img id='swapped'  src='G_7.jpg' height='90'> <img id='swapped'  src='G_2.jpg' height='90'> <img   src='G_1.jpg' height='90'> <img src='G_6.jpg' height='90'> <img src='G_3.jpg' height='90'> <img src='G_4.jpg' height='90'> <img src='G_5.jpg' height='90'> <img src='G_8.jpg' height='90'>","0","Learning example 1",""
"","","","","","html-button-response","128","69724","0.0-121.1-0.1-0.1","29","1","2025-01-25 08:13:13","af8d355d56820e421d246a7037deb6e6","73.231.147.146","Mozilla/5.0 (Windows NT 10.0; Win64; x64) AppleWebKit/537.36 (KHTML, like Gecko) Chrome/131.0.0.0 Safari/537.36","WebKit","Chrome","131.0.0.0","Windows","10.0","https://app.prolific.com/","en,zh-CN;q=0.9,zh;q=0.8,ja;q=0.7,zh-TW;q=0.6","6500b3922f1493c553f2037f","67949641171f97c04e14fb34","0eyrvjnk9si","","283","<img id='swapped'  src='G_7.jpg' height='90'> <img id='swapped'  src='G_2.jpg' height='90'> <img   src='G_1.jpg' height='90'> <img src='G_6.jpg' height='90'> <img src='G_3.jpg' height='90'> <img src='G_4.jpg' height='90'> <img src='G_5.jpg' height='90'> <img src='G_8.jpg' height='90'>","1","Learning example 1",""
"","","","","","html-button-response","129","69940","0.0-122.0","29","1","2025-01-25 08:13:13","af8d355d56820e421d246a7037deb6e6","73.231.147.146","Mozilla/5.0 (Windows NT 10.0; Win64; x64) AppleWebKit/537.36 (KHTML, like Gecko) Chrome/131.0.0.0 Safari/537.36","WebKit","Chrome","131.0.0.0","Windows","10.0","https://app.prolific.com/","en,zh-CN;q=0.9,zh;q=0.8,ja;q=0.7,zh-TW;q=0.6","6500b3922f1493c553f2037f","67949641171f97c04e14fb34","0eyrvjnk9si","","null","<img   src='G_7.jpg' height='90'> <img   src='G_2.jpg' height='90'> <img   src='G_1.jpg' height='90'> <img src='G_6.jpg' height='90'> <img src='G_3.jpg' height='90'> <img src='G_4.jpg' height='90'> <img src='G_5.jpg' height='90'> <img src='G_8.jpg' height='90'>","null","Learning example 1",""
"","","","","","html-button-response","130","70349","0.0-123.0","29","1","2025-01-25 08:13:13","af8d355d56820e421d246a7037deb6e6","73.231.147.146","Mozilla/5.0 (Windows NT 10.0; Win64; x64) AppleWebKit/537.36 (KHTML, like Gecko) Chrome/131.0.0.0 Safari/537.36","WebKit","Chrome","131.0.0.0","Windows","10.0","https://app.prolific.com/","en,zh-CN;q=0.9,zh;q=0.8,ja;q=0.7,zh-TW;q=0.6","6500b3922f1493c553f2037f","67949641171f97c04e14fb34","0eyrvjnk9si","","null","<img   src='G_7.jpg' height='90'> <img   src='G_2.jpg' height='90'> <img id='selected'   src='G_1.jpg' height='90'> <img src='G_6.jpg' height='90'> <img src='G_3.jpg' height='90'> <img src='G_4.jpg' height='90'> <img src='G_5.jpg' height='90'> <img src='G_8.jpg' height='90'>","null","Learning example 1",""
"","","","","","html-button-response","131","70660","0.0-124.0","29","1","2025-01-25 08:13:13","af8d355d56820e421d246a7037deb6e6","73.231.147.146","Mozilla/5.0 (Windows NT 10.0; Win64; x64) AppleWebKit/537.36 (KHTML, like Gecko) Chrome/131.0.0.0 Safari/537.36","WebKit","Chrome","131.0.0.0","Windows","10.0","https://app.prolific.com/","en,zh-CN;q=0.9,zh;q=0.8,ja;q=0.7,zh-TW;q=0.6","6500b3922f1493c553f2037f","67949641171f97c04e14fb34","0eyrvjnk9si","","null","<img   src='G_7.jpg' height='90'> <img   src='G_2.jpg' height='90'> <img id='selected'   src='G_1.jpg' height='90'> <img id='selected' src='G_6.jpg' height='90'> <img src='G_3.jpg' height='90'> <img src='G_4.jpg' height='90'> <img src='G_5.jpg' height='90'> <img src='G_8.jpg' height='90'>","null","Learning example 1",""
"","","","","","html-button-response","132","70971","0.0-125.0","29","1","2025-01-25 08:13:13","af8d355d56820e421d246a7037deb6e6","73.231.147.146","Mozilla/5.0 (Windows NT 10.0; Win64; x64) AppleWebKit/537.36 (KHTML, like Gecko) Chrome/131.0.0.0 Safari/537.36","WebKit","Chrome","131.0.0.0","Windows","10.0","https://app.prolific.com/","en,zh-CN;q=0.9,zh;q=0.8,ja;q=0.7,zh-TW;q=0.6","6500b3922f1493c553f2037f","67949641171f97c04e14fb34","0eyrvjnk9si","","null","<img   src='G_7.jpg' height='90'> <img   src='G_2.jpg' height='90'> <img id='swapped' src='G_6.jpg' height='90'> <img id='swapped'   src='G_1.jpg' height='90'> <img src='G_3.jpg' height='90'> <img src='G_4.jpg' height='90'> <img src='G_5.jpg' height='90'> <img src='G_8.jpg' height='90'>","null","Learning example 1",""
"","","","","","html-button-response","133","71170","0.0-126.0-0.0-0.0","29","1","2025-01-25 08:13:13","af8d355d56820e421d246a7037deb6e6","73.231.147.146","Mozilla/5.0 (Windows NT 10.0; Win64; x64) AppleWebKit/537.36 (KHTML, like Gecko) Chrome/131.0.0.0 Safari/537.36","WebKit","Chrome","131.0.0.0","Windows","10.0","https://app.prolific.com/","en,zh-CN;q=0.9,zh;q=0.8,ja;q=0.7,zh-TW;q=0.6","6500b3922f1493c553f2037f","67949641171f97c04e14fb34","0eyrvjnk9si","","189","<img   src='G_7.jpg' height='90'> <img   src='G_2.jpg' height='90'> <img id='swapped' src='G_6.jpg' height='90'> <img id='swapped'   src='G_1.jpg' height='90'> <img src='G_3.jpg' height='90'> <img src='G_4.jpg' height='90'> <img src='G_5.jpg' height='90'> <img src='G_8.jpg' height='90'>","2","Learning example 1",""
"","","","","","html-button-response","134","71519","0.0-126.1-0.1-0.1","29","1","2025-01-25 08:13:13","af8d355d56820e421d246a7037deb6e6","73.231.147.146","Mozilla/5.0 (Windows NT 10.0; Win64; x64) AppleWebKit/537.36 (KHTML, like Gecko) Chrome/131.0.0.0 Safari/537.36","WebKit","Chrome","131.0.0.0","Windows","10.0","https://app.prolific.com/","en,zh-CN;q=0.9,zh;q=0.8,ja;q=0.7,zh-TW;q=0.6","6500b3922f1493c553f2037f","67949641171f97c04e14fb34","0eyrvjnk9si","","346","<img   src='G_7.jpg' height='90'> <img   src='G_2.jpg' height='90'> <img id='swapped' src='G_6.jpg' height='90'> <img id='swapped'   src='G_1.jpg' height='90'> <img src='G_3.jpg' height='90'> <img src='G_4.jpg' height='90'> <img src='G_5.jpg' height='90'> <img src='G_8.jpg' height='90'>","3","Learning example 1",""
"","","","","","html-button-response","135","71722","0.0-127.0","29","1","2025-01-25 08:13:13","af8d355d56820e421d246a7037deb6e6","73.231.147.146","Mozilla/5.0 (Windows NT 10.0; Win64; x64) AppleWebKit/537.36 (KHTML, like Gecko) Chrome/131.0.0.0 Safari/537.36","WebKit","Chrome","131.0.0.0","Windows","10.0","https://app.prolific.com/","en,zh-CN;q=0.9,zh;q=0.8,ja;q=0.7,zh-TW;q=0.6","6500b3922f1493c553f2037f","67949641171f97c04e14fb34","0eyrvjnk9si","","null","<img   src='G_7.jpg' height='90'> <img   src='G_2.jpg' height='90'> <img  src='G_6.jpg' height='90'> <img    src='G_1.jpg' height='90'> <img src='G_3.jpg' height='90'> <img src='G_4.jpg' height='90'> <img src='G_5.jpg' height='90'> <img src='G_8.jpg' height='90'>","null","Learning example 1",""
