"success","timeout","failed_images","failed_audio","failed_video","trial_type","trial_index","time_elapsed","internal_node_id","run_id","condition","recorded_at","source_code_version","ip","user_agent","device","browser","browser_version","platform","platform_version","referer","accept_language","PROLIFIC_PID","STUDY_ID","SESSION_ID","view_history","rt","stimulus","response","phase","question_order"
"true","false","[]","[]","[]","preload","0","3195","0.0-0.0","30","1","2025-01-25 16:24:53","af8d355d56820e421d246a7037deb6e6","161.77.41.86","Mozilla/5.0 (Windows NT 10.0; Win64; x64) AppleWebKit/537.36 (KHTML, like Gecko) Chrome/131.0.0.0 Safari/537.36","WebKit","Chrome","131.0.0.0","Windows","10.0","https://app.prolific.com/","en-US,en;q=0.9","6793751badf02fd55a1f0fb9","67949641171f97c04e14fb34","6795103909f635b61005d513","","","","","",""
"","","","","","instructions","1","155646","0.0-1.0","30","1","2025-01-25 16:24:53","af8d355d56820e421d246a7037deb6e6","161.77.41.86","Mozilla/5.0 (Windows NT 10.0; Win64; x64) AppleWebKit/537.36 (KHTML, like Gecko) Chrome/131.0.0.0 Safari/537.36","WebKit","Chrome","131.0.0.0","Windows","10.0","https://app.prolific.com/","en-US,en;q=0.9","6793751badf02fd55a1f0fb9","67949641171f97c04e14fb34","6795103909f635b61005d513","[{""page_index"":0,""viewing_time"":152447}]","152448","","","",""
"","","","","","html-keyboard-response","2","156162","0.0-2.0","30","1","2025-01-25 16:24:53","af8d355d56820e421d246a7037deb6e6","161.77.41.86","Mozilla/5.0 (Windows NT 10.0; Win64; x64) AppleWebKit/537.36 (KHTML, like Gecko) Chrome/131.0.0.0 Safari/537.36","WebKit","Chrome","131.0.0.0","Windows","10.0","https://app.prolific.com/","en-US,en;q=0.9","6793751badf02fd55a1f0fb9","67949641171f97c04e14fb34","6795103909f635b61005d513","","null","<p> + <p/>","null","",""
"","","","","","instructions","3","208795","0.0-3.0","30","1","2025-01-25 16:24:53","af8d355d56820e421d246a7037deb6e6","161.77.41.86","Mozilla/5.0 (Windows NT 10.0; Win64; x64) AppleWebKit/537.36 (KHTML, like Gecko) Chrome/131.0.0.0 Safari/537.36","WebKit","Chrome","131.0.0.0","Windows","10.0","https://app.prolific.com/","en-US,en;q=0.9","6793751badf02fd55a1f0fb9","67949641171f97c04e14fb34","6795103909f635b61005d513","[{""page_index"":0,""viewing_time"":4325},{""page_index"":1,""viewing_time"":14186},{""page_index"":2,""viewing_time"":15446},{""page_index"":3,""viewing_time"":7625},{""page_index"":4,""viewing_time"":11048}]","52631","","","",""
"","","","","","html-button-response","4","235860","0.0-4.0-0.0-0.0","30","1","2025-01-25 16:24:53","af8d355d56820e421d246a7037deb6e6","161.77.41.86","Mozilla/5.0 (Windows NT 10.0; Win64; x64) AppleWebKit/537.36 (KHTML, like Gecko) Chrome/131.0.0.0 Safari/537.36","WebKit","Chrome","131.0.0.0","Windows","10.0","https://app.prolific.com/","en-US,en;q=0.9","6793751badf02fd55a1f0fb9","67949641171f97c04e14fb34","6795103909f635b61005d513","","27062","","4","Intro Trial",""
"","","","","","html-button-response","5","237219","0.0-4.1-0.1-0.1","30","1","2025-01-25 16:24:53","af8d355d56820e421d246a7037deb6e6","161.77.41.86","Mozilla/5.0 (Windows NT 10.0; Win64; x64) AppleWebKit/537.36 (KHTML, like Gecko) Chrome/131.0.0.0 Safari/537.36","WebKit","Chrome","131.0.0.0","Windows","10.0","https://app.prolific.com/","en-US,en;q=0.9","6793751badf02fd55a1f0fb9","67949641171f97c04e14fb34","6795103909f635b61005d513","","1357","","2","Intro Trial",""
"","","","","","html-button-response","6","246333","0.0-4.2-0.2-0.2","30","1","2025-01-25 16:24:53","af8d355d56820e421d246a7037deb6e6","161.77.41.86","Mozilla/5.0 (Windows NT 10.0; Win64; x64) AppleWebKit/537.36 (KHTML, like Gecko) Chrome/131.0.0.0 Safari/537.36","WebKit","Chrome","131.0.0.0","Windows","10.0","https://app.prolific.com/","en-US,en;q=0.9","6793751badf02fd55a1f0fb9","67949641171f97c04e14fb34","6795103909f635b61005d513","","9112","","3","Intro Trial",""
"","","","","","html-button-response","7","251015","0.0-4.3-0.3-0.3","30","1","2025-01-25 16:24:53","af8d355d56820e421d246a7037deb6e6","161.77.41.86","Mozilla/5.0 (Windows NT 10.0; Win64; x64) AppleWebKit/537.36 (KHTML, like Gecko) Chrome/131.0.0.0 Safari/537.36","WebKit","Chrome","131.0.0.0","Windows","10.0","https://app.prolific.com/","en-US,en;q=0.9","6793751badf02fd55a1f0fb9","67949641171f97c04e14fb34","6795103909f635b61005d513","","4680","","1","Intro Trial",""
"","","","","","html-button-response","8","252687","0.0-4.4-0.4-0.4","30","1","2025-01-25 16:24:53","af8d355d56820e421d246a7037deb6e6","161.77.41.86","Mozilla/5.0 (Windows NT 10.0; Win64; x64) AppleWebKit/537.36 (KHTML, like Gecko) Chrome/131.0.0.0 Safari/537.36","WebKit","Chrome","131.0.0.0","Windows","10.0","https://app.prolific.com/","en-US,en;q=0.9","6793751badf02fd55a1f0fb9","67949641171f97c04e14fb34","6795103909f635b61005d513","","1670","","3","Intro Trial",""
"","","","","","html-button-response","9","253115","0.0-4.5-0.5-0.5","30","1","2025-01-25 16:24:53","af8d355d56820e421d246a7037deb6e6","161.77.41.86","Mozilla/5.0 (Windows NT 10.0; Win64; x64) AppleWebKit/537.36 (KHTML, like Gecko) Chrome/131.0.0.0 Safari/537.36","WebKit","Chrome","131.0.0.0","Windows","10.0","https://app.prolific.com/","en-US,en;q=0.9","6793751badf02fd55a1f0fb9","67949641171f97c04e14fb34","6795103909f635b61005d513","","426","","2","Intro Trial",""
"","","","","","html-button-response","10","253979","0.0-4.6-0.6-0.6","30","1","2025-01-25 16:24:53","af8d355d56820e421d246a7037deb6e6","161.77.41.86","Mozilla/5.0 (Windows NT 10.0; Win64; x64) AppleWebKit/537.36 (KHTML, like Gecko) Chrome/131.0.0.0 Safari/537.36","WebKit","Chrome","131.0.0.0","Windows","10.0","https://app.prolific.com/","en-US,en;q=0.9","6793751badf02fd55a1f0fb9","67949641171f97c04e14fb34","6795103909f635b61005d513","","862","","2","Intro Trial",""
"","","","","","html-button-response","11","254551","0.0-4.7-0.7-0.7","30","1","2025-01-25 16:24:53","af8d355d56820e421d246a7037deb6e6","161.77.41.86","Mozilla/5.0 (Windows NT 10.0; Win64; x64) AppleWebKit/537.36 (KHTML, like Gecko) Chrome/131.0.0.0 Safari/537.36","WebKit","Chrome","131.0.0.0","Windows","10.0","https://app.prolific.com/","en-US,en;q=0.9","6793751badf02fd55a1f0fb9","67949641171f97c04e14fb34","6795103909f635b61005d513","","570","","3","Intro Trial",""
"","","","","","html-button-response","12","255734","0.0-4.8-0.8-0.8","30","1","2025-01-25 16:24:53","af8d355d56820e421d246a7037deb6e6","161.77.41.86","Mozilla/5.0 (Windows NT 10.0; Win64; x64) AppleWebKit/537.36 (KHTML, like Gecko) Chrome/131.0.0.0 Safari/537.36","WebKit","Chrome","131.0.0.0","Windows","10.0","https://app.prolific.com/","en-US,en;q=0.9","6793751badf02fd55a1f0fb9","67949641171f97c04e14fb34","6795103909f635b61005d513","","1180","","1","Intro Trial",""
"","","","","","html-button-response","13","257013","0.0-4.9-0.9-0.9","30","1","2025-01-25 16:24:53","af8d355d56820e421d246a7037deb6e6","161.77.41.86","Mozilla/5.0 (Windows NT 10.0; Win64; x64) AppleWebKit/537.36 (KHTML, like Gecko) Chrome/131.0.0.0 Safari/537.36","WebKit","Chrome","131.0.0.0","Windows","10.0","https://app.prolific.com/","en-US,en;q=0.9","6793751badf02fd55a1f0fb9","67949641171f97c04e14fb34","6795103909f635b61005d513","","1278","","0","Intro Trial",""
"","","","","","html-button-response","14","260073","0.0-4.10-0.10-0.10","30","1","2025-01-25 16:24:53","af8d355d56820e421d246a7037deb6e6","161.77.41.86","Mozilla/5.0 (Windows NT 10.0; Win64; x64) AppleWebKit/537.36 (KHTML, like Gecko) Chrome/131.0.0.0 Safari/537.36","WebKit","Chrome","131.0.0.0","Windows","10.0","https://app.prolific.com/","en-US,en;q=0.9","6793751badf02fd55a1f0fb9","67949641171f97c04e14fb34","6795103909f635b61005d513","","3058","","1","Intro Trial",""
"","","","","","html-button-response","15","261125","0.0-4.11-0.11-0.11","30","1","2025-01-25 16:24:53","af8d355d56820e421d246a7037deb6e6","161.77.41.86","Mozilla/5.0 (Windows NT 10.0; Win64; x64) AppleWebKit/537.36 (KHTML, like Gecko) Chrome/131.0.0.0 Safari/537.36","WebKit","Chrome","131.0.0.0","Windows","10.0","https://app.prolific.com/","en-US,en;q=0.9","6793751badf02fd55a1f0fb9","67949641171f97c04e14fb34","6795103909f635b61005d513","","1050","","3","Intro Trial",""
"","","","","","html-button-response","16","261953","0.0-4.12-0.12-0.12","30","1","2025-01-25 16:24:53","af8d355d56820e421d246a7037deb6e6","161.77.41.86","Mozilla/5.0 (Windows NT 10.0; Win64; x64) AppleWebKit/537.36 (KHTML, like Gecko) Chrome/131.0.0.0 Safari/537.36","WebKit","Chrome","131.0.0.0","Windows","10.0","https://app.prolific.com/","en-US,en;q=0.9","6793751badf02fd55a1f0fb9","67949641171f97c04e14fb34","6795103909f635b61005d513","","826","","3","Intro Trial",""
"","","","","","html-button-response","17","262757","0.0-4.13-0.13-0.13","30","1","2025-01-25 16:24:53","af8d355d56820e421d246a7037deb6e6","161.77.41.86","Mozilla/5.0 (Windows NT 10.0; Win64; x64) AppleWebKit/537.36 (KHTML, like Gecko) Chrome/131.0.0.0 Safari/537.36","WebKit","Chrome","131.0.0.0","Windows","10.0","https://app.prolific.com/","en-US,en;q=0.9","6793751badf02fd55a1f0fb9","67949641171f97c04e14fb34","6795103909f635b61005d513","","802","","1","Intro Trial",""
"","","","","","html-button-response","18","264080","0.0-4.14-0.14-0.14","30","1","2025-01-25 16:24:53","af8d355d56820e421d246a7037deb6e6","161.77.41.86","Mozilla/5.0 (Windows NT 10.0; Win64; x64) AppleWebKit/537.36 (KHTML, like Gecko) Chrome/131.0.0.0 Safari/537.36","WebKit","Chrome","131.0.0.0","Windows","10.0","https://app.prolific.com/","en-US,en;q=0.9","6793751badf02fd55a1f0fb9","67949641171f97c04e14fb34","6795103909f635b61005d513","","1320","","0","Intro Trial",""
"","","","","","html-button-response","19","264483","0.0-4.15-0.15-0.15","30","1","2025-01-25 16:24:53","af8d355d56820e421d246a7037deb6e6","161.77.41.86","Mozilla/5.0 (Windows NT 10.0; Win64; x64) AppleWebKit/537.36 (KHTML, like Gecko) Chrome/131.0.0.0 Safari/537.36","WebKit","Chrome","131.0.0.0","Windows","10.0","https://app.prolific.com/","en-US,en;q=0.9","6793751badf02fd55a1f0fb9","67949641171f97c04e14fb34","6795103909f635b61005d513","","402","","1","Intro Trial",""
"","","","","","html-button-response","20","264951","0.0-4.16-0.16-0.16","30","1","2025-01-25 16:24:53","af8d355d56820e421d246a7037deb6e6","161.77.41.86","Mozilla/5.0 (Windows NT 10.0; Win64; x64) AppleWebKit/537.36 (KHTML, like Gecko) Chrome/131.0.0.0 Safari/537.36","WebKit","Chrome","131.0.0.0","Windows","10.0","https://app.prolific.com/","en-US,en;q=0.9","6793751badf02fd55a1f0fb9","67949641171f97c04e14fb34","6795103909f635b61005d513","","466","","1","Intro Trial",""
"","","","","","html-button-response","21","265459","0.0-4.17-0.17-0.17","30","1","2025-01-25 16:24:53","af8d355d56820e421d246a7037deb6e6","161.77.41.86","Mozilla/5.0 (Windows NT 10.0; Win64; x64) AppleWebKit/537.36 (KHTML, like Gecko) Chrome/131.0.0.0 Safari/537.36","WebKit","Chrome","131.0.0.0","Windows","10.0","https://app.prolific.com/","en-US,en;q=0.9","6793751badf02fd55a1f0fb9","67949641171f97c04e14fb34","6795103909f635b61005d513","","506","","0","Intro Trial",""
"","","","","","html-button-response","22","267963","0.0-4.18-0.18-0.18","30","1","2025-01-25 16:24:53","af8d355d56820e421d246a7037deb6e6","161.77.41.86","Mozilla/5.0 (Windows NT 10.0; Win64; x64) AppleWebKit/537.36 (KHTML, like Gecko) Chrome/131.0.0.0 Safari/537.36","WebKit","Chrome","131.0.0.0","Windows","10.0","https://app.prolific.com/","en-US,en;q=0.9","6793751badf02fd55a1f0fb9","67949641171f97c04e14fb34","6795103909f635b61005d513","","2502","","5","Intro Trial",""
"","","","","","html-keyboard-response","23","295231","0.0-5.0","30","1","2025-01-25 16:24:53","af8d355d56820e421d246a7037deb6e6","161.77.41.86","Mozilla/5.0 (Windows NT 10.0; Win64; x64) AppleWebKit/537.36 (KHTML, like Gecko) Chrome/131.0.0.0 Safari/537.36","WebKit","Chrome","131.0.0.0","Windows","10.0","https://app.prolific.com/","en-US,en;q=0.9","6793751badf02fd55a1f0fb9","67949641171f97c04e14fb34","6795103909f635b61005d513","","27266","[""You sorted incorrectly by using the balance 9 times. <br><br> <img src='G_2.jpg' height='90'><img src='G_1.jpg' height='90'><img src='G_5.jpg' height='90'><img src='G_4.jpg' height='90'><img src='G_3.jpg' height='90'><br><br> Your final order is 2,4,1,5,3<br><br><br>Omgne Sort in this game will allow you to sort correctly by using the balance 8 times. Press Enter to learn it!""]","enter","",""
"","","","","","html-keyboard-response","24","306130","0.0-6.0","30","1","2025-01-25 16:24:53","af8d355d56820e421d246a7037deb6e6","161.77.41.86","Mozilla/5.0 (Windows NT 10.0; Win64; x64) AppleWebKit/537.36 (KHTML, like Gecko) Chrome/131.0.0.0 Safari/537.36","WebKit","Chrome","131.0.0.0","Windows","10.0","https://app.prolific.com/","en-US,en;q=0.9","6793751badf02fd55a1f0fb9","67949641171f97c04e14fb34","6795103909f635b61005d513","","10897","<p>Welcome to the learning phase! <br><br> You will learn by six examples. The following learning trials will not be used to calculate your performance. <br><br> Press Enter to continue.<p/>","enter","",""
"","","","","","html-keyboard-response","25","314121","0.0-7.0","30","1","2025-01-25 16:24:53","af8d355d56820e421d246a7037deb6e6","161.77.41.86","Mozilla/5.0 (Windows NT 10.0; Win64; x64) AppleWebKit/537.36 (KHTML, like Gecko) Chrome/131.0.0.0 Safari/537.36","WebKit","Chrome","131.0.0.0","Windows","10.0","https://app.prolific.com/","en-US,en;q=0.9","6793751badf02fd55a1f0fb9","67949641171f97c04e14fb34","6795103909f635b61005d513","","7989","[""Example 1<br><br>You will watch Omnge Sort in action. Try to identify any patterns in the comparisons made by this method. <br><br>Press Enter to continue.""]","enter","",""
"","","","","","html-keyboard-response","26","314638","0.0-8.0","30","1","2025-01-25 16:24:53","af8d355d56820e421d246a7037deb6e6","161.77.41.86","Mozilla/5.0 (Windows NT 10.0; Win64; x64) AppleWebKit/537.36 (KHTML, like Gecko) Chrome/131.0.0.0 Safari/537.36","WebKit","Chrome","131.0.0.0","Windows","10.0","https://app.prolific.com/","en-US,en;q=0.9","6793751badf02fd55a1f0fb9","67949641171f97c04e14fb34","6795103909f635b61005d513","","null","<img id='selected' src='G_9.jpg' height='90'> <img src='G_3.jpg' height='90'> <img src='G_7.jpg' height='90'> <img src='G_1.jpg' height='90'> <img src='G_5.jpg' height='90'>","null","Animation0",""
"","","","","","html-keyboard-response","27","315149","0.0-9.0","30","1","2025-01-25 16:24:53","af8d355d56820e421d246a7037deb6e6","161.77.41.86","Mozilla/5.0 (Windows NT 10.0; Win64; x64) AppleWebKit/537.36 (KHTML, like Gecko) Chrome/131.0.0.0 Safari/537.36","WebKit","Chrome","131.0.0.0","Windows","10.0","https://app.prolific.com/","en-US,en;q=0.9","6793751badf02fd55a1f0fb9","67949641171f97c04e14fb34","6795103909f635b61005d513","","null","<img id='selected' src='G_9.jpg' height='90'> <img id='selected' src='G_3.jpg' height='90'> <img src='G_7.jpg' height='90'> <img src='G_1.jpg' height='90'> <img src='G_5.jpg' height='90'>","null","Animation0",""
"","","","","","html-keyboard-response","28","315665","0.0-10.0","30","1","2025-01-25 16:24:53","af8d355d56820e421d246a7037deb6e6","161.77.41.86","Mozilla/5.0 (Windows NT 10.0; Win64; x64) AppleWebKit/537.36 (KHTML, like Gecko) Chrome/131.0.0.0 Safari/537.36","WebKit","Chrome","131.0.0.0","Windows","10.0","https://app.prolific.com/","en-US,en;q=0.9","6793751badf02fd55a1f0fb9","67949641171f97c04e14fb34","6795103909f635b61005d513","","null","<img id='swapped' src='G_3.jpg' height='90'> <img id='swapped' src='G_9.jpg' height='90'> <img src='G_7.jpg' height='90'> <img src='G_1.jpg' height='90'> <img src='G_5.jpg' height='90'>","null","Animation0",""
"","","","","","html-keyboard-response","29","315976","0.0-11.0","30","1","2025-01-25 16:24:53","af8d355d56820e421d246a7037deb6e6","161.77.41.86","Mozilla/5.0 (Windows NT 10.0; Win64; x64) AppleWebKit/537.36 (KHTML, like Gecko) Chrome/131.0.0.0 Safari/537.36","WebKit","Chrome","131.0.0.0","Windows","10.0","https://app.prolific.com/","en-US,en;q=0.9","6793751badf02fd55a1f0fb9","67949641171f97c04e14fb34","6795103909f635b61005d513","","null","<img  src='G_3.jpg' height='90'> <img  src='G_9.jpg' height='90'> <img src='G_7.jpg' height='90'> <img src='G_1.jpg' height='90'> <img src='G_5.jpg' height='90'>","null","Animation0",""
"","","","","","html-keyboard-response","30","316492","0.0-12.0","30","1","2025-01-25 16:24:53","af8d355d56820e421d246a7037deb6e6","161.77.41.86","Mozilla/5.0 (Windows NT 10.0; Win64; x64) AppleWebKit/537.36 (KHTML, like Gecko) Chrome/131.0.0.0 Safari/537.36","WebKit","Chrome","131.0.0.0","Windows","10.0","https://app.prolific.com/","en-US,en;q=0.9","6793751badf02fd55a1f0fb9","67949641171f97c04e14fb34","6795103909f635b61005d513","","null","<img  src='G_3.jpg' height='90'> <img id='selected'  src='G_9.jpg' height='90'> <img src='G_7.jpg' height='90'> <img src='G_1.jpg' height='90'> <img src='G_5.jpg' height='90'>","null","Animation0",""
"","","","","","html-keyboard-response","31","317010","0.0-13.0","30","1","2025-01-25 16:24:53","af8d355d56820e421d246a7037deb6e6","161.77.41.86","Mozilla/5.0 (Windows NT 10.0; Win64; x64) AppleWebKit/537.36 (KHTML, like Gecko) Chrome/131.0.0.0 Safari/537.36","WebKit","Chrome","131.0.0.0","Windows","10.0","https://app.prolific.com/","en-US,en;q=0.9","6793751badf02fd55a1f0fb9","67949641171f97c04e14fb34","6795103909f635b61005d513","","null","<img  src='G_3.jpg' height='90'> <img id='selected'  src='G_9.jpg' height='90'> <img id='selected' src='G_7.jpg' height='90'> <img src='G_1.jpg' height='90'> <img src='G_5.jpg' height='90'>","null","Animation0",""
"","","","","","html-keyboard-response","32","317521","0.0-14.0","30","1","2025-01-25 16:24:53","af8d355d56820e421d246a7037deb6e6","161.77.41.86","Mozilla/5.0 (Windows NT 10.0; Win64; x64) AppleWebKit/537.36 (KHTML, like Gecko) Chrome/131.0.0.0 Safari/537.36","WebKit","Chrome","131.0.0.0","Windows","10.0","https://app.prolific.com/","en-US,en;q=0.9","6793751badf02fd55a1f0fb9","67949641171f97c04e14fb34","6795103909f635b61005d513","","null","<img  src='G_3.jpg' height='90'> <img id='selected'  src='G_9.jpg' height='90'> <img id='selected' src='G_7.jpg' height='90'> <img src='G_1.jpg' height='90'> <img src='G_5.jpg' height='90'>","null","Animation0",""
"","","","","","html-keyboard-response","33","317834","0.0-15.0","30","1","2025-01-25 16:24:53","af8d355d56820e421d246a7037deb6e6","161.77.41.86","Mozilla/5.0 (Windows NT 10.0; Win64; x64) AppleWebKit/537.36 (KHTML, like Gecko) Chrome/131.0.0.0 Safari/537.36","WebKit","Chrome","131.0.0.0","Windows","10.0","https://app.prolific.com/","en-US,en;q=0.9","6793751badf02fd55a1f0fb9","67949641171f97c04e14fb34","6795103909f635b61005d513","","null","<img  src='G_3.jpg' height='90'> <img   src='G_9.jpg' height='90'> <img  src='G_7.jpg' height='90'> <img src='G_1.jpg' height='90'> <img src='G_5.jpg' height='90'>","null","Animation0",""
"","","","","","html-keyboard-response","34","318348","0.0-16.0","30","1","2025-01-25 16:24:53","af8d355d56820e421d246a7037deb6e6","161.77.41.86","Mozilla/5.0 (Windows NT 10.0; Win64; x64) AppleWebKit/537.36 (KHTML, like Gecko) Chrome/131.0.0.0 Safari/537.36","WebKit","Chrome","131.0.0.0","Windows","10.0","https://app.prolific.com/","en-US,en;q=0.9","6793751badf02fd55a1f0fb9","67949641171f97c04e14fb34","6795103909f635b61005d513","","null","<img  src='G_3.jpg' height='90'> <img   src='G_9.jpg' height='90'> <img id='selected'  src='G_7.jpg' height='90'> <img src='G_1.jpg' height='90'> <img src='G_5.jpg' height='90'>","null","Animation0",""
"","","","","","html-keyboard-response","35","318863","0.0-17.0","30","1","2025-01-25 16:24:53","af8d355d56820e421d246a7037deb6e6","161.77.41.86","Mozilla/5.0 (Windows NT 10.0; Win64; x64) AppleWebKit/537.36 (KHTML, like Gecko) Chrome/131.0.0.0 Safari/537.36","WebKit","Chrome","131.0.0.0","Windows","10.0","https://app.prolific.com/","en-US,en;q=0.9","6793751badf02fd55a1f0fb9","67949641171f97c04e14fb34","6795103909f635b61005d513","","null","<img  src='G_3.jpg' height='90'> <img   src='G_9.jpg' height='90'> <img id='selected'  src='G_7.jpg' height='90'> <img id='selected' src='G_1.jpg' height='90'> <img src='G_5.jpg' height='90'>","null","Animation0",""
"","","","","","html-keyboard-response","36","319380","0.0-18.0","30","1","2025-01-25 16:24:53","af8d355d56820e421d246a7037deb6e6","161.77.41.86","Mozilla/5.0 (Windows NT 10.0; Win64; x64) AppleWebKit/537.36 (KHTML, like Gecko) Chrome/131.0.0.0 Safari/537.36","WebKit","Chrome","131.0.0.0","Windows","10.0","https://app.prolific.com/","en-US,en;q=0.9","6793751badf02fd55a1f0fb9","67949641171f97c04e14fb34","6795103909f635b61005d513","","null","<img  src='G_3.jpg' height='90'> <img   src='G_9.jpg' height='90'> <img id='selected'  src='G_7.jpg' height='90'> <img id='selected' src='G_1.jpg' height='90'> <img src='G_5.jpg' height='90'>","null","Animation0",""
"","","","","","html-keyboard-response","37","319690","0.0-19.0","30","1","2025-01-25 16:24:53","af8d355d56820e421d246a7037deb6e6","161.77.41.86","Mozilla/5.0 (Windows NT 10.0; Win64; x64) AppleWebKit/537.36 (KHTML, like Gecko) Chrome/131.0.0.0 Safari/537.36","WebKit","Chrome","131.0.0.0","Windows","10.0","https://app.prolific.com/","en-US,en;q=0.9","6793751badf02fd55a1f0fb9","67949641171f97c04e14fb34","6795103909f635b61005d513","","null","<img  src='G_3.jpg' height='90'> <img   src='G_9.jpg' height='90'> <img   src='G_7.jpg' height='90'> <img  src='G_1.jpg' height='90'> <img src='G_5.jpg' height='90'>","null","Animation0",""
"","","","","","html-keyboard-response","38","320207","0.0-20.0","30","1","2025-01-25 16:24:53","af8d355d56820e421d246a7037deb6e6","161.77.41.86","Mozilla/5.0 (Windows NT 10.0; Win64; x64) AppleWebKit/537.36 (KHTML, like Gecko) Chrome/131.0.0.0 Safari/537.36","WebKit","Chrome","131.0.0.0","Windows","10.0","https://app.prolific.com/","en-US,en;q=0.9","6793751badf02fd55a1f0fb9","67949641171f97c04e14fb34","6795103909f635b61005d513","","null","<img  src='G_3.jpg' height='90'> <img   src='G_9.jpg' height='90'> <img   src='G_7.jpg' height='90'> <img id='selected'  src='G_1.jpg' height='90'> <img src='G_5.jpg' height='90'>","null","Animation0",""
"","","","","","html-keyboard-response","39","320720","0.0-21.0","30","1","2025-01-25 16:24:53","af8d355d56820e421d246a7037deb6e6","161.77.41.86","Mozilla/5.0 (Windows NT 10.0; Win64; x64) AppleWebKit/537.36 (KHTML, like Gecko) Chrome/131.0.0.0 Safari/537.36","WebKit","Chrome","131.0.0.0","Windows","10.0","https://app.prolific.com/","en-US,en;q=0.9","6793751badf02fd55a1f0fb9","67949641171f97c04e14fb34","6795103909f635b61005d513","","null","<img  src='G_3.jpg' height='90'> <img   src='G_9.jpg' height='90'> <img   src='G_7.jpg' height='90'> <img id='selected'  src='G_1.jpg' height='90'> <img id='selected' src='G_5.jpg' height='90'>","null","Animation0",""
"","","","","","html-keyboard-response","40","321232","0.0-22.0","30","1","2025-01-25 16:24:53","af8d355d56820e421d246a7037deb6e6","161.77.41.86","Mozilla/5.0 (Windows NT 10.0; Win64; x64) AppleWebKit/537.36 (KHTML, like Gecko) Chrome/131.0.0.0 Safari/537.36","WebKit","Chrome","131.0.0.0","Windows","10.0","https://app.prolific.com/","en-US,en;q=0.9","6793751badf02fd55a1f0fb9","67949641171f97c04e14fb34","6795103909f635b61005d513","","null","<img  src='G_3.jpg' height='90'> <img   src='G_9.jpg' height='90'> <img   src='G_7.jpg' height='90'> <img id='selected'  src='G_1.jpg' height='90'> <img id='selected' src='G_5.jpg' height='90'>","null","Animation0",""
"","","","","","html-keyboard-response","41","321544","0.0-23.0","30","1","2025-01-25 16:24:53","af8d355d56820e421d246a7037deb6e6","161.77.41.86","Mozilla/5.0 (Windows NT 10.0; Win64; x64) AppleWebKit/537.36 (KHTML, like Gecko) Chrome/131.0.0.0 Safari/537.36","WebKit","Chrome","131.0.0.0","Windows","10.0","https://app.prolific.com/","en-US,en;q=0.9","6793751badf02fd55a1f0fb9","67949641171f97c04e14fb34","6795103909f635b61005d513","","null","<img  src='G_3.jpg' height='90'> <img   src='G_9.jpg' height='90'> <img   src='G_7.jpg' height='90'> <img   src='G_1.jpg' height='90'> <img  src='G_5.jpg' height='90'>","null","Animation0",""
"","","","","","html-keyboard-response","42","326081","0.0-24.0","30","1","2025-01-25 16:24:53","af8d355d56820e421d246a7037deb6e6","161.77.41.86","Mozilla/5.0 (Windows NT 10.0; Win64; x64) AppleWebKit/537.36 (KHTML, like Gecko) Chrome/131.0.0.0 Safari/537.36","WebKit","Chrome","131.0.0.0","Windows","10.0","https://app.prolific.com/","en-US,en;q=0.9","6793751badf02fd55a1f0fb9","67949641171f97c04e14fb34","6795103909f635b61005d513","","4533","[""Did you notice any patterns? <br><br>Press Enter to watch that example again and follow the steps of Omgne Sort.""]","enter","",""
"","","","","","html-button-response","43","326492","0.0-25.0","30","1","2025-01-25 16:24:53","af8d355d56820e421d246a7037deb6e6","161.77.41.86","Mozilla/5.0 (Windows NT 10.0; Win64; x64) AppleWebKit/537.36 (KHTML, like Gecko) Chrome/131.0.0.0 Safari/537.36","WebKit","Chrome","131.0.0.0","Windows","10.0","https://app.prolific.com/","en-US,en;q=0.9","6793751badf02fd55a1f0fb9","67949641171f97c04e14fb34","6795103909f635b61005d513","","null","<img id='selected' src='G_9.jpg' height='90'> <img src='G_3.jpg' height='90'> <img src='G_7.jpg' height='90'> <img src='G_1.jpg' height='90'> <img src='G_5.jpg' height='90'>","null","Learning example 0",""
"","","","","","html-button-response","44","326805","0.0-26.0","30","1","2025-01-25 16:24:53","af8d355d56820e421d246a7037deb6e6","161.77.41.86","Mozilla/5.0 (Windows NT 10.0; Win64; x64) AppleWebKit/537.36 (KHTML, like Gecko) Chrome/131.0.0.0 Safari/537.36","WebKit","Chrome","131.0.0.0","Windows","10.0","https://app.prolific.com/","en-US,en;q=0.9","6793751badf02fd55a1f0fb9","67949641171f97c04e14fb34","6795103909f635b61005d513","","null","<img id='selected' src='G_9.jpg' height='90'> <img id='selected' src='G_3.jpg' height='90'> <img src='G_7.jpg' height='90'> <img src='G_1.jpg' height='90'> <img src='G_5.jpg' height='90'>","null","Learning example 0",""
"","","","","","html-button-response","45","327113","0.0-27.0","30","1","2025-01-25 16:24:53","af8d355d56820e421d246a7037deb6e6","161.77.41.86","Mozilla/5.0 (Windows NT 10.0; Win64; x64) AppleWebKit/537.36 (KHTML, like Gecko) Chrome/131.0.0.0 Safari/537.36","WebKit","Chrome","131.0.0.0","Windows","10.0","https://app.prolific.com/","en-US,en;q=0.9","6793751badf02fd55a1f0fb9","67949641171f97c04e14fb34","6795103909f635b61005d513","","null","<img id='swapped' src='G_3.jpg' height='90'> <img id='swapped' src='G_9.jpg' height='90'> <img src='G_7.jpg' height='90'> <img src='G_1.jpg' height='90'> <img src='G_5.jpg' height='90'>","null","Learning example 0",""
"","","","","","html-button-response","46","372547","0.0-28.0-0.0-0.0","30","1","2025-01-25 16:24:53","af8d355d56820e421d246a7037deb6e6","161.77.41.86","Mozilla/5.0 (Windows NT 10.0; Win64; x64) AppleWebKit/537.36 (KHTML, like Gecko) Chrome/131.0.0.0 Safari/537.36","WebKit","Chrome","131.0.0.0","Windows","10.0","https://app.prolific.com/","en-US,en;q=0.9","6793751badf02fd55a1f0fb9","67949641171f97c04e14fb34","6795103909f635b61005d513","","45429","<img id='swapped' src='G_3.jpg' height='90'> <img id='swapped' src='G_9.jpg' height='90'> <img src='G_7.jpg' height='90'> <img src='G_1.jpg' height='90'> <img src='G_5.jpg' height='90'>","3","Learning example 0",""
"","","","","","html-button-response","47","373263","0.0-28.1-0.1-0.1","30","1","2025-01-25 16:24:53","af8d355d56820e421d246a7037deb6e6","161.77.41.86","Mozilla/5.0 (Windows NT 10.0; Win64; x64) AppleWebKit/537.36 (KHTML, like Gecko) Chrome/131.0.0.0 Safari/537.36","WebKit","Chrome","131.0.0.0","Windows","10.0","https://app.prolific.com/","en-US,en;q=0.9","6793751badf02fd55a1f0fb9","67949641171f97c04e14fb34","6795103909f635b61005d513","","713","<img id='swapped' src='G_3.jpg' height='90'> <img id='swapped' src='G_9.jpg' height='90'> <img src='G_7.jpg' height='90'> <img src='G_1.jpg' height='90'> <img src='G_5.jpg' height='90'>","2","Learning example 0",""
"","","","","","html-button-response","48","374043","0.0-28.2-0.2-0.2","30","1","2025-01-25 16:24:53","af8d355d56820e421d246a7037deb6e6","161.77.41.86","Mozilla/5.0 (Windows NT 10.0; Win64; x64) AppleWebKit/537.36 (KHTML, like Gecko) Chrome/131.0.0.0 Safari/537.36","WebKit","Chrome","131.0.0.0","Windows","10.0","https://app.prolific.com/","en-US,en;q=0.9","6793751badf02fd55a1f0fb9","67949641171f97c04e14fb34","6795103909f635b61005d513","","777","<img id='swapped' src='G_3.jpg' height='90'> <img id='swapped' src='G_9.jpg' height='90'> <img src='G_7.jpg' height='90'> <img src='G_1.jpg' height='90'> <img src='G_5.jpg' height='90'>","2","Learning example 0",""
"","","","","","html-button-response","49","374528","0.0-28.3-0.3-0.3","30","1","2025-01-25 16:24:53","af8d355d56820e421d246a7037deb6e6","161.77.41.86","Mozilla/5.0 (Windows NT 10.0; Win64; x64) AppleWebKit/537.36 (KHTML, like Gecko) Chrome/131.0.0.0 Safari/537.36","WebKit","Chrome","131.0.0.0","Windows","10.0","https://app.prolific.com/","en-US,en;q=0.9","6793751badf02fd55a1f0fb9","67949641171f97c04e14fb34","6795103909f635b61005d513","","481","<img id='swapped' src='G_3.jpg' height='90'> <img id='swapped' src='G_9.jpg' height='90'> <img src='G_7.jpg' height='90'> <img src='G_1.jpg' height='90'> <img src='G_5.jpg' height='90'>","3","Learning example 0",""
"","","","","","html-button-response","50","375263","0.0-28.4-0.4-0.4","30","1","2025-01-25 16:24:53","af8d355d56820e421d246a7037deb6e6","161.77.41.86","Mozilla/5.0 (Windows NT 10.0; Win64; x64) AppleWebKit/537.36 (KHTML, like Gecko) Chrome/131.0.0.0 Safari/537.36","WebKit","Chrome","131.0.0.0","Windows","10.0","https://app.prolific.com/","en-US,en;q=0.9","6793751badf02fd55a1f0fb9","67949641171f97c04e14fb34","6795103909f635b61005d513","","733","<img id='swapped' src='G_3.jpg' height='90'> <img id='swapped' src='G_9.jpg' height='90'> <img src='G_7.jpg' height='90'> <img src='G_1.jpg' height='90'> <img src='G_5.jpg' height='90'>","4","Learning example 0",""
"","","","","","html-button-response","51","375791","0.0-28.5-0.5-0.5","30","1","2025-01-25 16:24:53","af8d355d56820e421d246a7037deb6e6","161.77.41.86","Mozilla/5.0 (Windows NT 10.0; Win64; x64) AppleWebKit/537.36 (KHTML, like Gecko) Chrome/131.0.0.0 Safari/537.36","WebKit","Chrome","131.0.0.0","Windows","10.0","https://app.prolific.com/","en-US,en;q=0.9","6793751badf02fd55a1f0fb9","67949641171f97c04e14fb34","6795103909f635b61005d513","","525","<img id='swapped' src='G_3.jpg' height='90'> <img id='swapped' src='G_9.jpg' height='90'> <img src='G_7.jpg' height='90'> <img src='G_1.jpg' height='90'> <img src='G_5.jpg' height='90'>","3","Learning example 0",""
"","","","","","html-button-response","52","377007","0.0-28.6-0.6-0.6","30","1","2025-01-25 16:24:53","af8d355d56820e421d246a7037deb6e6","161.77.41.86","Mozilla/5.0 (Windows NT 10.0; Win64; x64) AppleWebKit/537.36 (KHTML, like Gecko) Chrome/131.0.0.0 Safari/537.36","WebKit","Chrome","131.0.0.0","Windows","10.0","https://app.prolific.com/","en-US,en;q=0.9","6793751badf02fd55a1f0fb9","67949641171f97c04e14fb34","6795103909f635b61005d513","","1213","<img id='swapped' src='G_3.jpg' height='90'> <img id='swapped' src='G_9.jpg' height='90'> <img src='G_7.jpg' height='90'> <img src='G_1.jpg' height='90'> <img src='G_5.jpg' height='90'>","0","Learning example 0",""
"","","","","","html-button-response","53","377569","0.0-28.7-0.7-0.7","30","1","2025-01-25 16:24:53","af8d355d56820e421d246a7037deb6e6","161.77.41.86","Mozilla/5.0 (Windows NT 10.0; Win64; x64) AppleWebKit/537.36 (KHTML, like Gecko) Chrome/131.0.0.0 Safari/537.36","WebKit","Chrome","131.0.0.0","Windows","10.0","https://app.prolific.com/","en-US,en;q=0.9","6793751badf02fd55a1f0fb9","67949641171f97c04e14fb34","6795103909f635b61005d513","","559","<img id='swapped' src='G_3.jpg' height='90'> <img id='swapped' src='G_9.jpg' height='90'> <img src='G_7.jpg' height='90'> <img src='G_1.jpg' height='90'> <img src='G_5.jpg' height='90'>","1","Learning example 0",""
"","","","","","html-button-response","54","377784","0.0-29.0","30","1","2025-01-25 16:24:53","af8d355d56820e421d246a7037deb6e6","161.77.41.86","Mozilla/5.0 (Windows NT 10.0; Win64; x64) AppleWebKit/537.36 (KHTML, like Gecko) Chrome/131.0.0.0 Safari/537.36","WebKit","Chrome","131.0.0.0","Windows","10.0","https://app.prolific.com/","en-US,en;q=0.9","6793751badf02fd55a1f0fb9","67949641171f97c04e14fb34","6795103909f635b61005d513","","null","<img  src='G_3.jpg' height='90'> <img  src='G_9.jpg' height='90'> <img src='G_7.jpg' height='90'> <img src='G_1.jpg' height='90'> <img src='G_5.jpg' height='90'>","null","Learning example 0",""
"","","","","","html-button-response","55","378205","0.0-30.0","30","1","2025-01-25 16:24:53","af8d355d56820e421d246a7037deb6e6","161.77.41.86","Mozilla/5.0 (Windows NT 10.0; Win64; x64) AppleWebKit/537.36 (KHTML, like Gecko) Chrome/131.0.0.0 Safari/537.36","WebKit","Chrome","131.0.0.0","Windows","10.0","https://app.prolific.com/","en-US,en;q=0.9","6793751badf02fd55a1f0fb9","67949641171f97c04e14fb34","6795103909f635b61005d513","","null","<img  src='G_3.jpg' height='90'> <img id='selected'  src='G_9.jpg' height='90'> <img src='G_7.jpg' height='90'> <img src='G_1.jpg' height='90'> <img src='G_5.jpg' height='90'>","null","Learning example 0",""
"","","","","","html-button-response","56","378514","0.0-31.0","30","1","2025-01-25 16:24:53","af8d355d56820e421d246a7037deb6e6","161.77.41.86","Mozilla/5.0 (Windows NT 10.0; Win64; x64) AppleWebKit/537.36 (KHTML, like Gecko) Chrome/131.0.0.0 Safari/537.36","WebKit","Chrome","131.0.0.0","Windows","10.0","https://app.prolific.com/","en-US,en;q=0.9","6793751badf02fd55a1f0fb9","67949641171f97c04e14fb34","6795103909f635b61005d513","","null","<img  src='G_3.jpg' height='90'> <img id='selected'  src='G_9.jpg' height='90'> <img id='selected' src='G_7.jpg' height='90'> <img src='G_1.jpg' height='90'> <img src='G_5.jpg' height='90'>","null","Learning example 0",""
"","","","","","html-button-response","57","378838","0.0-32.0","30","1","2025-01-25 16:24:53","af8d355d56820e421d246a7037deb6e6","161.77.41.86","Mozilla/5.0 (Windows NT 10.0; Win64; x64) AppleWebKit/537.36 (KHTML, like Gecko) Chrome/131.0.0.0 Safari/537.36","WebKit","Chrome","131.0.0.0","Windows","10.0","https://app.prolific.com/","en-US,en;q=0.9","6793751badf02fd55a1f0fb9","67949641171f97c04e14fb34","6795103909f635b61005d513","","null","<img  src='G_3.jpg' height='90'> <img id='selected'  src='G_9.jpg' height='90'> <img id='selected' src='G_7.jpg' height='90'> <img src='G_1.jpg' height='90'> <img src='G_5.jpg' height='90'>","null","Learning example 0",""
"","","","","","html-button-response","58","382093","0.0-33.0-0.0-0.0","30","1","2025-01-25 16:24:53","af8d355d56820e421d246a7037deb6e6","161.77.41.86","Mozilla/5.0 (Windows NT 10.0; Win64; x64) AppleWebKit/537.36 (KHTML, like Gecko) Chrome/131.0.0.0 Safari/537.36","WebKit","Chrome","131.0.0.0","Windows","10.0","https://app.prolific.com/","en-US,en;q=0.9","6793751badf02fd55a1f0fb9","67949641171f97c04e14fb34","6795103909f635b61005d513","","3248","<img  src='G_3.jpg' height='90'> <img id='selected'  src='G_9.jpg' height='90'> <img id='selected' src='G_7.jpg' height='90'> <img src='G_1.jpg' height='90'> <img src='G_5.jpg' height='90'>","1","Learning example 0",""
"","","","","","html-button-response","59","382985","0.0-33.1-0.1-0.1","30","1","2025-01-25 16:24:53","af8d355d56820e421d246a7037deb6e6","161.77.41.86","Mozilla/5.0 (Windows NT 10.0; Win64; x64) AppleWebKit/537.36 (KHTML, like Gecko) Chrome/131.0.0.0 Safari/537.36","WebKit","Chrome","131.0.0.0","Windows","10.0","https://app.prolific.com/","en-US,en;q=0.9","6793751badf02fd55a1f0fb9","67949641171f97c04e14fb34","6795103909f635b61005d513","","890","<img  src='G_3.jpg' height='90'> <img id='selected'  src='G_9.jpg' height='90'> <img id='selected' src='G_7.jpg' height='90'> <img src='G_1.jpg' height='90'> <img src='G_5.jpg' height='90'>","0","Learning example 0",""
"","","","","","html-button-response","60","388480","0.0-33.2-0.2-0.2","30","1","2025-01-25 16:24:53","af8d355d56820e421d246a7037deb6e6","161.77.41.86","Mozilla/5.0 (Windows NT 10.0; Win64; x64) AppleWebKit/537.36 (KHTML, like Gecko) Chrome/131.0.0.0 Safari/537.36","WebKit","Chrome","131.0.0.0","Windows","10.0","https://app.prolific.com/","en-US,en;q=0.9","6793751badf02fd55a1f0fb9","67949641171f97c04e14fb34","6795103909f635b61005d513","","5489","<img  src='G_3.jpg' height='90'> <img id='selected'  src='G_9.jpg' height='90'> <img id='selected' src='G_7.jpg' height='90'> <img src='G_1.jpg' height='90'> <img src='G_5.jpg' height='90'>","3","Learning example 0",""
"","","","","","html-button-response","61","389159","0.0-33.3-0.3-0.3","30","1","2025-01-25 16:24:53","af8d355d56820e421d246a7037deb6e6","161.77.41.86","Mozilla/5.0 (Windows NT 10.0; Win64; x64) AppleWebKit/537.36 (KHTML, like Gecko) Chrome/131.0.0.0 Safari/537.36","WebKit","Chrome","131.0.0.0","Windows","10.0","https://app.prolific.com/","en-US,en;q=0.9","6793751badf02fd55a1f0fb9","67949641171f97c04e14fb34","6795103909f635b61005d513","","676","<img  src='G_3.jpg' height='90'> <img id='selected'  src='G_9.jpg' height='90'> <img id='selected' src='G_7.jpg' height='90'> <img src='G_1.jpg' height='90'> <img src='G_5.jpg' height='90'>","2","Learning example 0",""
"","","","","","html-button-response","62","389867","0.0-33.4-0.4-0.4","30","1","2025-01-25 16:24:53","af8d355d56820e421d246a7037deb6e6","161.77.41.86","Mozilla/5.0 (Windows NT 10.0; Win64; x64) AppleWebKit/537.36 (KHTML, like Gecko) Chrome/131.0.0.0 Safari/537.36","WebKit","Chrome","131.0.0.0","Windows","10.0","https://app.prolific.com/","en-US,en;q=0.9","6793751badf02fd55a1f0fb9","67949641171f97c04e14fb34","6795103909f635b61005d513","","705","<img  src='G_3.jpg' height='90'> <img id='selected'  src='G_9.jpg' height='90'> <img id='selected' src='G_7.jpg' height='90'> <img src='G_1.jpg' height='90'> <img src='G_5.jpg' height='90'>","3","Learning example 0",""
"","","","","","html-button-response","63","396065","0.0-33.5-0.5-0.5","30","1","2025-01-25 16:24:53","af8d355d56820e421d246a7037deb6e6","161.77.41.86","Mozilla/5.0 (Windows NT 10.0; Win64; x64) AppleWebKit/537.36 (KHTML, like Gecko) Chrome/131.0.0.0 Safari/537.36","WebKit","Chrome","131.0.0.0","Windows","10.0","https://app.prolific.com/","en-US,en;q=0.9","6793751badf02fd55a1f0fb9","67949641171f97c04e14fb34","6795103909f635b61005d513","","6195","<img  src='G_3.jpg' height='90'> <img id='selected'  src='G_9.jpg' height='90'> <img id='selected' src='G_7.jpg' height='90'> <img src='G_1.jpg' height='90'> <img src='G_5.jpg' height='90'>","2","Learning example 0",""
"","","","","","html-button-response","64","396630","0.0-33.6-0.6-0.6","30","1","2025-01-25 16:24:53","af8d355d56820e421d246a7037deb6e6","161.77.41.86","Mozilla/5.0 (Windows NT 10.0; Win64; x64) AppleWebKit/537.36 (KHTML, like Gecko) Chrome/131.0.0.0 Safari/537.36","WebKit","Chrome","131.0.0.0","Windows","10.0","https://app.prolific.com/","en-US,en;q=0.9","6793751badf02fd55a1f0fb9","67949641171f97c04e14fb34","6795103909f635b61005d513","","561","<img  src='G_3.jpg' height='90'> <img id='selected'  src='G_9.jpg' height='90'> <img id='selected' src='G_7.jpg' height='90'> <img src='G_1.jpg' height='90'> <img src='G_5.jpg' height='90'>","1","Learning example 0",""
"","","","","","html-button-response","65","396833","0.0-34.0","30","1","2025-01-25 16:24:53","af8d355d56820e421d246a7037deb6e6","161.77.41.86","Mozilla/5.0 (Windows NT 10.0; Win64; x64) AppleWebKit/537.36 (KHTML, like Gecko) Chrome/131.0.0.0 Safari/537.36","WebKit","Chrome","131.0.0.0","Windows","10.0","https://app.prolific.com/","en-US,en;q=0.9","6793751badf02fd55a1f0fb9","67949641171f97c04e14fb34","6795103909f635b61005d513","","null","<img  src='G_3.jpg' height='90'> <img   src='G_9.jpg' height='90'> <img  src='G_7.jpg' height='90'> <img src='G_1.jpg' height='90'> <img src='G_5.jpg' height='90'>","null","Learning example 0",""
"","","","","","html-button-response","66","397253","0.0-35.0","30","1","2025-01-25 16:24:53","af8d355d56820e421d246a7037deb6e6","161.77.41.86","Mozilla/5.0 (Windows NT 10.0; Win64; x64) AppleWebKit/537.36 (KHTML, like Gecko) Chrome/131.0.0.0 Safari/537.36","WebKit","Chrome","131.0.0.0","Windows","10.0","https://app.prolific.com/","en-US,en;q=0.9","6793751badf02fd55a1f0fb9","67949641171f97c04e14fb34","6795103909f635b61005d513","","null","<img  src='G_3.jpg' height='90'> <img   src='G_9.jpg' height='90'> <img id='selected'  src='G_7.jpg' height='90'> <img src='G_1.jpg' height='90'> <img src='G_5.jpg' height='90'>","null","Learning example 0",""
"","","","","","html-button-response","67","397571","0.0-36.0","30","1","2025-01-25 16:24:53","af8d355d56820e421d246a7037deb6e6","161.77.41.86","Mozilla/5.0 (Windows NT 10.0; Win64; x64) AppleWebKit/537.36 (KHTML, like Gecko) Chrome/131.0.0.0 Safari/537.36","WebKit","Chrome","131.0.0.0","Windows","10.0","https://app.prolific.com/","en-US,en;q=0.9","6793751badf02fd55a1f0fb9","67949641171f97c04e14fb34","6795103909f635b61005d513","","null","<img  src='G_3.jpg' height='90'> <img   src='G_9.jpg' height='90'> <img id='selected'  src='G_7.jpg' height='90'> <img id='selected' src='G_1.jpg' height='90'> <img src='G_5.jpg' height='90'>","null","Learning example 0",""
"","","","","","html-button-response","68","397880","0.0-37.0","30","1","2025-01-25 16:24:53","af8d355d56820e421d246a7037deb6e6","161.77.41.86","Mozilla/5.0 (Windows NT 10.0; Win64; x64) AppleWebKit/537.36 (KHTML, like Gecko) Chrome/131.0.0.0 Safari/537.36","WebKit","Chrome","131.0.0.0","Windows","10.0","https://app.prolific.com/","en-US,en;q=0.9","6793751badf02fd55a1f0fb9","67949641171f97c04e14fb34","6795103909f635b61005d513","","null","<img  src='G_3.jpg' height='90'> <img   src='G_9.jpg' height='90'> <img id='selected'  src='G_7.jpg' height='90'> <img id='selected' src='G_1.jpg' height='90'> <img src='G_5.jpg' height='90'>","null","Learning example 0",""
"","","","","","html-button-response","69","401819","0.0-38.0-0.0-0.0","30","1","2025-01-25 16:24:53","af8d355d56820e421d246a7037deb6e6","161.77.41.86","Mozilla/5.0 (Windows NT 10.0; Win64; x64) AppleWebKit/537.36 (KHTML, like Gecko) Chrome/131.0.0.0 Safari/537.36","WebKit","Chrome","131.0.0.0","Windows","10.0","https://app.prolific.com/","en-US,en;q=0.9","6793751badf02fd55a1f0fb9","67949641171f97c04e14fb34","6795103909f635b61005d513","","3932","<img  src='G_3.jpg' height='90'> <img   src='G_9.jpg' height='90'> <img id='selected'  src='G_7.jpg' height='90'> <img id='selected' src='G_1.jpg' height='90'> <img src='G_5.jpg' height='90'>","3","Learning example 0",""
"","","","","","html-button-response","70","402979","0.0-38.1-0.1-0.1","30","1","2025-01-25 16:24:53","af8d355d56820e421d246a7037deb6e6","161.77.41.86","Mozilla/5.0 (Windows NT 10.0; Win64; x64) AppleWebKit/537.36 (KHTML, like Gecko) Chrome/131.0.0.0 Safari/537.36","WebKit","Chrome","131.0.0.0","Windows","10.0","https://app.prolific.com/","en-US,en;q=0.9","6793751badf02fd55a1f0fb9","67949641171f97c04e14fb34","6795103909f635b61005d513","","1157","<img  src='G_3.jpg' height='90'> <img   src='G_9.jpg' height='90'> <img id='selected'  src='G_7.jpg' height='90'> <img id='selected' src='G_1.jpg' height='90'> <img src='G_5.jpg' height='90'>","3","Learning example 0",""
"","","","","","html-button-response","71","403503","0.0-38.2-0.2-0.2","30","1","2025-01-25 16:24:53","af8d355d56820e421d246a7037deb6e6","161.77.41.86","Mozilla/5.0 (Windows NT 10.0; Win64; x64) AppleWebKit/537.36 (KHTML, like Gecko) Chrome/131.0.0.0 Safari/537.36","WebKit","Chrome","131.0.0.0","Windows","10.0","https://app.prolific.com/","en-US,en;q=0.9","6793751badf02fd55a1f0fb9","67949641171f97c04e14fb34","6795103909f635b61005d513","","521","<img  src='G_3.jpg' height='90'> <img   src='G_9.jpg' height='90'> <img id='selected'  src='G_7.jpg' height='90'> <img id='selected' src='G_1.jpg' height='90'> <img src='G_5.jpg' height='90'>","2","Learning example 0",""
"","","","","","html-button-response","72","403713","0.0-39.0","30","1","2025-01-25 16:24:53","af8d355d56820e421d246a7037deb6e6","161.77.41.86","Mozilla/5.0 (Windows NT 10.0; Win64; x64) AppleWebKit/537.36 (KHTML, like Gecko) Chrome/131.0.0.0 Safari/537.36","WebKit","Chrome","131.0.0.0","Windows","10.0","https://app.prolific.com/","en-US,en;q=0.9","6793751badf02fd55a1f0fb9","67949641171f97c04e14fb34","6795103909f635b61005d513","","null","<img  src='G_3.jpg' height='90'> <img   src='G_9.jpg' height='90'> <img   src='G_7.jpg' height='90'> <img  src='G_1.jpg' height='90'> <img src='G_5.jpg' height='90'>","null","Learning example 0",""
"","","","","","html-button-response","73","404133","0.0-40.0","30","1","2025-01-25 16:24:53","af8d355d56820e421d246a7037deb6e6","161.77.41.86","Mozilla/5.0 (Windows NT 10.0; Win64; x64) AppleWebKit/537.36 (KHTML, like Gecko) Chrome/131.0.0.0 Safari/537.36","WebKit","Chrome","131.0.0.0","Windows","10.0","https://app.prolific.com/","en-US,en;q=0.9","6793751badf02fd55a1f0fb9","67949641171f97c04e14fb34","6795103909f635b61005d513","","null","<img  src='G_3.jpg' height='90'> <img   src='G_9.jpg' height='90'> <img   src='G_7.jpg' height='90'> <img id='selected'  src='G_1.jpg' height='90'> <img src='G_5.jpg' height='90'>","null","Learning example 0",""
"","","","","","html-button-response","74","404442","0.0-41.0","30","1","2025-01-25 16:24:53","af8d355d56820e421d246a7037deb6e6","161.77.41.86","Mozilla/5.0 (Windows NT 10.0; Win64; x64) AppleWebKit/537.36 (KHTML, like Gecko) Chrome/131.0.0.0 Safari/537.36","WebKit","Chrome","131.0.0.0","Windows","10.0","https://app.prolific.com/","en-US,en;q=0.9","6793751badf02fd55a1f0fb9","67949641171f97c04e14fb34","6795103909f635b61005d513","","null","<img  src='G_3.jpg' height='90'> <img   src='G_9.jpg' height='90'> <img   src='G_7.jpg' height='90'> <img id='selected'  src='G_1.jpg' height='90'> <img id='selected' src='G_5.jpg' height='90'>","null","Learning example 0",""
"","","","","","html-button-response","75","404760","0.0-42.0","30","1","2025-01-25 16:24:53","af8d355d56820e421d246a7037deb6e6","161.77.41.86","Mozilla/5.0 (Windows NT 10.0; Win64; x64) AppleWebKit/537.36 (KHTML, like Gecko) Chrome/131.0.0.0 Safari/537.36","WebKit","Chrome","131.0.0.0","Windows","10.0","https://app.prolific.com/","en-US,en;q=0.9","6793751badf02fd55a1f0fb9","67949641171f97c04e14fb34","6795103909f635b61005d513","","null","<img  src='G_3.jpg' height='90'> <img   src='G_9.jpg' height='90'> <img   src='G_7.jpg' height='90'> <img id='selected'  src='G_1.jpg' height='90'> <img id='selected' src='G_5.jpg' height='90'>","null","Learning example 0",""
"","","","","","html-button-response","76","405383","0.0-43.0-0.0-0.0","30","1","2025-01-25 16:24:53","af8d355d56820e421d246a7037deb6e6","161.77.41.86","Mozilla/5.0 (Windows NT 10.0; Win64; x64) AppleWebKit/537.36 (KHTML, like Gecko) Chrome/131.0.0.0 Safari/537.36","WebKit","Chrome","131.0.0.0","Windows","10.0","https://app.prolific.com/","en-US,en;q=0.9","6793751badf02fd55a1f0fb9","67949641171f97c04e14fb34","6795103909f635b61005d513","","619","<img  src='G_3.jpg' height='90'> <img   src='G_9.jpg' height='90'> <img   src='G_7.jpg' height='90'> <img id='selected'  src='G_1.jpg' height='90'> <img id='selected' src='G_5.jpg' height='90'>","2","Learning example 0",""
"","","","","","html-button-response","77","406067","0.0-43.1-0.1-0.1","30","1","2025-01-25 16:24:53","af8d355d56820e421d246a7037deb6e6","161.77.41.86","Mozilla/5.0 (Windows NT 10.0; Win64; x64) AppleWebKit/537.36 (KHTML, like Gecko) Chrome/131.0.0.0 Safari/537.36","WebKit","Chrome","131.0.0.0","Windows","10.0","https://app.prolific.com/","en-US,en;q=0.9","6793751badf02fd55a1f0fb9","67949641171f97c04e14fb34","6795103909f635b61005d513","","681","<img  src='G_3.jpg' height='90'> <img   src='G_9.jpg' height='90'> <img   src='G_7.jpg' height='90'> <img id='selected'  src='G_1.jpg' height='90'> <img id='selected' src='G_5.jpg' height='90'>","4","Learning example 0",""
"","","","","","html-button-response","78","407627","0.0-43.2-0.2-0.2","30","1","2025-01-25 16:24:53","af8d355d56820e421d246a7037deb6e6","161.77.41.86","Mozilla/5.0 (Windows NT 10.0; Win64; x64) AppleWebKit/537.36 (KHTML, like Gecko) Chrome/131.0.0.0 Safari/537.36","WebKit","Chrome","131.0.0.0","Windows","10.0","https://app.prolific.com/","en-US,en;q=0.9","6793751badf02fd55a1f0fb9","67949641171f97c04e14fb34","6795103909f635b61005d513","","1557","<img  src='G_3.jpg' height='90'> <img   src='G_9.jpg' height='90'> <img   src='G_7.jpg' height='90'> <img id='selected'  src='G_1.jpg' height='90'> <img id='selected' src='G_5.jpg' height='90'>","4","Learning example 0",""
"","","","","","html-button-response","79","408157","0.0-43.3-0.3-0.3","30","1","2025-01-25 16:24:53","af8d355d56820e421d246a7037deb6e6","161.77.41.86","Mozilla/5.0 (Windows NT 10.0; Win64; x64) AppleWebKit/537.36 (KHTML, like Gecko) Chrome/131.0.0.0 Safari/537.36","WebKit","Chrome","131.0.0.0","Windows","10.0","https://app.prolific.com/","en-US,en;q=0.9","6793751badf02fd55a1f0fb9","67949641171f97c04e14fb34","6795103909f635b61005d513","","527","<img  src='G_3.jpg' height='90'> <img   src='G_9.jpg' height='90'> <img   src='G_7.jpg' height='90'> <img id='selected'  src='G_1.jpg' height='90'> <img id='selected' src='G_5.jpg' height='90'>","3","Learning example 0",""
"","","","","","html-button-response","80","408361","0.0-44.0","30","1","2025-01-25 16:24:53","af8d355d56820e421d246a7037deb6e6","161.77.41.86","Mozilla/5.0 (Windows NT 10.0; Win64; x64) AppleWebKit/537.36 (KHTML, like Gecko) Chrome/131.0.0.0 Safari/537.36","WebKit","Chrome","131.0.0.0","Windows","10.0","https://app.prolific.com/","en-US,en;q=0.9","6793751badf02fd55a1f0fb9","67949641171f97c04e14fb34","6795103909f635b61005d513","","null","<img  src='G_3.jpg' height='90'> <img   src='G_9.jpg' height='90'> <img   src='G_7.jpg' height='90'> <img   src='G_1.jpg' height='90'> <img  src='G_5.jpg' height='90'>","null","Learning example 0",""
"","","","","","html-keyboard-response","81","429429","0.0-45.0","30","1","2025-01-25 16:24:53","af8d355d56820e421d246a7037deb6e6","161.77.41.86","Mozilla/5.0 (Windows NT 10.0; Win64; x64) AppleWebKit/537.36 (KHTML, like Gecko) Chrome/131.0.0.0 Safari/537.36","WebKit","Chrome","131.0.0.0","Windows","10.0","https://app.prolific.com/","en-US,en;q=0.9","6793751badf02fd55a1f0fb9","67949641171f97c04e14fb34","6795103909f635b61005d513","","21065","[""Final order was 1,2,3,4,5. The initial order was 2,1,3,4,5.<br>It took 1 swaps to sort it correctly with Omgne Sort. <br><br>Press Enter to continue.""]","enter","",""
"","","","","","html-keyboard-response","82","435183","0.0-46.0","30","1","2025-01-25 16:24:53","af8d355d56820e421d246a7037deb6e6","161.77.41.86","Mozilla/5.0 (Windows NT 10.0; Win64; x64) AppleWebKit/537.36 (KHTML, like Gecko) Chrome/131.0.0.0 Safari/537.36","WebKit","Chrome","131.0.0.0","Windows","10.0","https://app.prolific.com/","en-US,en;q=0.9","6793751badf02fd55a1f0fb9","67949641171f97c04e14fb34","6795103909f635b61005d513","","5752","[""Example 2<br><br>You will watch Omnge Sort in action. Try to identify any patterns in the comparisons made by this method. <br><br>Press Enter to continue.""]","enter","",""
"","","","","","html-keyboard-response","83","435694","0.0-47.0","30","1","2025-01-25 16:24:53","af8d355d56820e421d246a7037deb6e6","161.77.41.86","Mozilla/5.0 (Windows NT 10.0; Win64; x64) AppleWebKit/537.36 (KHTML, like Gecko) Chrome/131.0.0.0 Safari/537.36","WebKit","Chrome","131.0.0.0","Windows","10.0","https://app.prolific.com/","en-US,en;q=0.9","6793751badf02fd55a1f0fb9","67949641171f97c04e14fb34","6795103909f635b61005d513","","null","<img id='selected' src='G_2.jpg' height='90'> <img src='G_5.jpg' height='90'> <img src='G_4.jpg' height='90'> <img src='G_7.jpg' height='90'> <img src='G_8.jpg' height='90'> <img src='G_6.jpg' height='90'> <img src='G_1.jpg' height='90'> <img src='G_3.jpg' height='90'>","null","Animation1",""
"","","","","","html-keyboard-response","84","436212","0.0-48.0","30","1","2025-01-25 16:24:53","af8d355d56820e421d246a7037deb6e6","161.77.41.86","Mozilla/5.0 (Windows NT 10.0; Win64; x64) AppleWebKit/537.36 (KHTML, like Gecko) Chrome/131.0.0.0 Safari/537.36","WebKit","Chrome","131.0.0.0","Windows","10.0","https://app.prolific.com/","en-US,en;q=0.9","6793751badf02fd55a1f0fb9","67949641171f97c04e14fb34","6795103909f635b61005d513","","null","<img id='selected' src='G_2.jpg' height='90'> <img id='selected' src='G_5.jpg' height='90'> <img src='G_4.jpg' height='90'> <img src='G_7.jpg' height='90'> <img src='G_8.jpg' height='90'> <img src='G_6.jpg' height='90'> <img src='G_1.jpg' height='90'> <img src='G_3.jpg' height='90'>","null","Animation1",""
"","","","","","html-keyboard-response","85","436726","0.0-49.0","30","1","2025-01-25 16:24:53","af8d355d56820e421d246a7037deb6e6","161.77.41.86","Mozilla/5.0 (Windows NT 10.0; Win64; x64) AppleWebKit/537.36 (KHTML, like Gecko) Chrome/131.0.0.0 Safari/537.36","WebKit","Chrome","131.0.0.0","Windows","10.0","https://app.prolific.com/","en-US,en;q=0.9","6793751badf02fd55a1f0fb9","67949641171f97c04e14fb34","6795103909f635b61005d513","","null","<img id='selected' src='G_2.jpg' height='90'> <img id='selected' src='G_5.jpg' height='90'> <img src='G_4.jpg' height='90'> <img src='G_7.jpg' height='90'> <img src='G_8.jpg' height='90'> <img src='G_6.jpg' height='90'> <img src='G_1.jpg' height='90'> <img src='G_3.jpg' height='90'>","null","Animation1",""
"","","","","","html-keyboard-response","86","437037","0.0-50.0","30","1","2025-01-25 16:24:53","af8d355d56820e421d246a7037deb6e6","161.77.41.86","Mozilla/5.0 (Windows NT 10.0; Win64; x64) AppleWebKit/537.36 (KHTML, like Gecko) Chrome/131.0.0.0 Safari/537.36","WebKit","Chrome","131.0.0.0","Windows","10.0","https://app.prolific.com/","en-US,en;q=0.9","6793751badf02fd55a1f0fb9","67949641171f97c04e14fb34","6795103909f635b61005d513","","null","<img  src='G_2.jpg' height='90'> <img  src='G_5.jpg' height='90'> <img src='G_4.jpg' height='90'> <img src='G_7.jpg' height='90'> <img src='G_8.jpg' height='90'> <img src='G_6.jpg' height='90'> <img src='G_1.jpg' height='90'> <img src='G_3.jpg' height='90'>","null","Animation1",""
"","","","","","html-keyboard-response","87","437552","0.0-51.0","30","1","2025-01-25 16:24:53","af8d355d56820e421d246a7037deb6e6","161.77.41.86","Mozilla/5.0 (Windows NT 10.0; Win64; x64) AppleWebKit/537.36 (KHTML, like Gecko) Chrome/131.0.0.0 Safari/537.36","WebKit","Chrome","131.0.0.0","Windows","10.0","https://app.prolific.com/","en-US,en;q=0.9","6793751badf02fd55a1f0fb9","67949641171f97c04e14fb34","6795103909f635b61005d513","","null","<img  src='G_2.jpg' height='90'> <img id='selected'  src='G_5.jpg' height='90'> <img src='G_4.jpg' height='90'> <img src='G_7.jpg' height='90'> <img src='G_8.jpg' height='90'> <img src='G_6.jpg' height='90'> <img src='G_1.jpg' height='90'> <img src='G_3.jpg' height='90'>","null","Animation1",""
"","","","","","html-keyboard-response","88","438069","0.0-52.0","30","1","2025-01-25 16:24:53","af8d355d56820e421d246a7037deb6e6","161.77.41.86","Mozilla/5.0 (Windows NT 10.0; Win64; x64) AppleWebKit/537.36 (KHTML, like Gecko) Chrome/131.0.0.0 Safari/537.36","WebKit","Chrome","131.0.0.0","Windows","10.0","https://app.prolific.com/","en-US,en;q=0.9","6793751badf02fd55a1f0fb9","67949641171f97c04e14fb34","6795103909f635b61005d513","","null","<img  src='G_2.jpg' height='90'> <img id='selected'  src='G_5.jpg' height='90'> <img id='selected' src='G_4.jpg' height='90'> <img src='G_7.jpg' height='90'> <img src='G_8.jpg' height='90'> <img src='G_6.jpg' height='90'> <img src='G_1.jpg' height='90'> <img src='G_3.jpg' height='90'>","null","Animation1",""
"","","","","","html-keyboard-response","89","438580","0.0-53.0","30","1","2025-01-25 16:24:53","af8d355d56820e421d246a7037deb6e6","161.77.41.86","Mozilla/5.0 (Windows NT 10.0; Win64; x64) AppleWebKit/537.36 (KHTML, like Gecko) Chrome/131.0.0.0 Safari/537.36","WebKit","Chrome","131.0.0.0","Windows","10.0","https://app.prolific.com/","en-US,en;q=0.9","6793751badf02fd55a1f0fb9","67949641171f97c04e14fb34","6795103909f635b61005d513","","null","<img  src='G_2.jpg' height='90'> <img id='swapped' src='G_4.jpg' height='90'> <img id='swapped'  src='G_5.jpg' height='90'> <img src='G_7.jpg' height='90'> <img src='G_8.jpg' height='90'> <img src='G_6.jpg' height='90'> <img src='G_1.jpg' height='90'> <img src='G_3.jpg' height='90'>","null","Animation1",""
"","","","","","html-keyboard-response","90","438889","0.0-54.0","30","1","2025-01-25 16:24:53","af8d355d56820e421d246a7037deb6e6","161.77.41.86","Mozilla/5.0 (Windows NT 10.0; Win64; x64) AppleWebKit/537.36 (KHTML, like Gecko) Chrome/131.0.0.0 Safari/537.36","WebKit","Chrome","131.0.0.0","Windows","10.0","https://app.prolific.com/","en-US,en;q=0.9","6793751badf02fd55a1f0fb9","67949641171f97c04e14fb34","6795103909f635b61005d513","","null","<img  src='G_2.jpg' height='90'> <img  src='G_4.jpg' height='90'> <img   src='G_5.jpg' height='90'> <img src='G_7.jpg' height='90'> <img src='G_8.jpg' height='90'> <img src='G_6.jpg' height='90'> <img src='G_1.jpg' height='90'> <img src='G_3.jpg' height='90'>","null","Animation1",""
"","","","","","html-keyboard-response","91","439401","0.0-55.0","30","1","2025-01-25 16:24:53","af8d355d56820e421d246a7037deb6e6","161.77.41.86","Mozilla/5.0 (Windows NT 10.0; Win64; x64) AppleWebKit/537.36 (KHTML, like Gecko) Chrome/131.0.0.0 Safari/537.36","WebKit","Chrome","131.0.0.0","Windows","10.0","https://app.prolific.com/","en-US,en;q=0.9","6793751badf02fd55a1f0fb9","67949641171f97c04e14fb34","6795103909f635b61005d513","","null","<img id='selected'  src='G_2.jpg' height='90'> <img  src='G_4.jpg' height='90'> <img   src='G_5.jpg' height='90'> <img src='G_7.jpg' height='90'> <img src='G_8.jpg' height='90'> <img src='G_6.jpg' height='90'> <img src='G_1.jpg' height='90'> <img src='G_3.jpg' height='90'>","null","Animation1",""
"","","","","","html-keyboard-response","92","439919","0.0-56.0","30","1","2025-01-25 16:24:53","af8d355d56820e421d246a7037deb6e6","161.77.41.86","Mozilla/5.0 (Windows NT 10.0; Win64; x64) AppleWebKit/537.36 (KHTML, like Gecko) Chrome/131.0.0.0 Safari/537.36","WebKit","Chrome","131.0.0.0","Windows","10.0","https://app.prolific.com/","en-US,en;q=0.9","6793751badf02fd55a1f0fb9","67949641171f97c04e14fb34","6795103909f635b61005d513","","null","<img id='selected'  src='G_2.jpg' height='90'> <img id='selected'  src='G_4.jpg' height='90'> <img   src='G_5.jpg' height='90'> <img src='G_7.jpg' height='90'> <img src='G_8.jpg' height='90'> <img src='G_6.jpg' height='90'> <img src='G_1.jpg' height='90'> <img src='G_3.jpg' height='90'>","null","Animation1",""
"","","","","","html-keyboard-response","93","440437","0.0-57.0","30","1","2025-01-25 16:24:53","af8d355d56820e421d246a7037deb6e6","161.77.41.86","Mozilla/5.0 (Windows NT 10.0; Win64; x64) AppleWebKit/537.36 (KHTML, like Gecko) Chrome/131.0.0.0 Safari/537.36","WebKit","Chrome","131.0.0.0","Windows","10.0","https://app.prolific.com/","en-US,en;q=0.9","6793751badf02fd55a1f0fb9","67949641171f97c04e14fb34","6795103909f635b61005d513","","null","<img id='swapped'  src='G_4.jpg' height='90'> <img id='swapped'  src='G_2.jpg' height='90'> <img   src='G_5.jpg' height='90'> <img src='G_7.jpg' height='90'> <img src='G_8.jpg' height='90'> <img src='G_6.jpg' height='90'> <img src='G_1.jpg' height='90'> <img src='G_3.jpg' height='90'>","null","Animation1",""
"","","","","","html-keyboard-response","94","440750","0.0-58.0","30","1","2025-01-25 16:24:53","af8d355d56820e421d246a7037deb6e6","161.77.41.86","Mozilla/5.0 (Windows NT 10.0; Win64; x64) AppleWebKit/537.36 (KHTML, like Gecko) Chrome/131.0.0.0 Safari/537.36","WebKit","Chrome","131.0.0.0","Windows","10.0","https://app.prolific.com/","en-US,en;q=0.9","6793751badf02fd55a1f0fb9","67949641171f97c04e14fb34","6795103909f635b61005d513","","null","<img   src='G_4.jpg' height='90'> <img   src='G_2.jpg' height='90'> <img   src='G_5.jpg' height='90'> <img src='G_7.jpg' height='90'> <img src='G_8.jpg' height='90'> <img src='G_6.jpg' height='90'> <img src='G_1.jpg' height='90'> <img src='G_3.jpg' height='90'>","null","Animation1",""
"","","","","","html-keyboard-response","95","441264","0.0-59.0","30","1","2025-01-25 16:24:53","af8d355d56820e421d246a7037deb6e6","161.77.41.86","Mozilla/5.0 (Windows NT 10.0; Win64; x64) AppleWebKit/537.36 (KHTML, like Gecko) Chrome/131.0.0.0 Safari/537.36","WebKit","Chrome","131.0.0.0","Windows","10.0","https://app.prolific.com/","en-US,en;q=0.9","6793751badf02fd55a1f0fb9","67949641171f97c04e14fb34","6795103909f635b61005d513","","null","<img   src='G_4.jpg' height='90'> <img   src='G_2.jpg' height='90'> <img id='selected'   src='G_5.jpg' height='90'> <img src='G_7.jpg' height='90'> <img src='G_8.jpg' height='90'> <img src='G_6.jpg' height='90'> <img src='G_1.jpg' height='90'> <img src='G_3.jpg' height='90'>","null","Animation1",""
"","","","","","html-keyboard-response","96","441778","0.0-60.0","30","1","2025-01-25 16:24:53","af8d355d56820e421d246a7037deb6e6","161.77.41.86","Mozilla/5.0 (Windows NT 10.0; Win64; x64) AppleWebKit/537.36 (KHTML, like Gecko) Chrome/131.0.0.0 Safari/537.36","WebKit","Chrome","131.0.0.0","Windows","10.0","https://app.prolific.com/","en-US,en;q=0.9","6793751badf02fd55a1f0fb9","67949641171f97c04e14fb34","6795103909f635b61005d513","","null","<img   src='G_4.jpg' height='90'> <img   src='G_2.jpg' height='90'> <img id='selected'   src='G_5.jpg' height='90'> <img id='selected' src='G_7.jpg' height='90'> <img src='G_8.jpg' height='90'> <img src='G_6.jpg' height='90'> <img src='G_1.jpg' height='90'> <img src='G_3.jpg' height='90'>","null","Animation1",""
"","","","","","html-keyboard-response","97","442290","0.0-61.0","30","1","2025-01-25 16:24:53","af8d355d56820e421d246a7037deb6e6","161.77.41.86","Mozilla/5.0 (Windows NT 10.0; Win64; x64) AppleWebKit/537.36 (KHTML, like Gecko) Chrome/131.0.0.0 Safari/537.36","WebKit","Chrome","131.0.0.0","Windows","10.0","https://app.prolific.com/","en-US,en;q=0.9","6793751badf02fd55a1f0fb9","67949641171f97c04e14fb34","6795103909f635b61005d513","","null","<img   src='G_4.jpg' height='90'> <img   src='G_2.jpg' height='90'> <img id='swapped' src='G_7.jpg' height='90'> <img id='swapped'   src='G_5.jpg' height='90'> <img src='G_8.jpg' height='90'> <img src='G_6.jpg' height='90'> <img src='G_1.jpg' height='90'> <img src='G_3.jpg' height='90'>","null","Animation1",""
"","","","","","html-keyboard-response","98","442600","0.0-62.0","30","1","2025-01-25 16:24:53","af8d355d56820e421d246a7037deb6e6","161.77.41.86","Mozilla/5.0 (Windows NT 10.0; Win64; x64) AppleWebKit/537.36 (KHTML, like Gecko) Chrome/131.0.0.0 Safari/537.36","WebKit","Chrome","131.0.0.0","Windows","10.0","https://app.prolific.com/","en-US,en;q=0.9","6793751badf02fd55a1f0fb9","67949641171f97c04e14fb34","6795103909f635b61005d513","","null","<img   src='G_4.jpg' height='90'> <img   src='G_2.jpg' height='90'> <img  src='G_7.jpg' height='90'> <img    src='G_5.jpg' height='90'> <img src='G_8.jpg' height='90'> <img src='G_6.jpg' height='90'> <img src='G_1.jpg' height='90'> <img src='G_3.jpg' height='90'>","null","Animation1",""
"","","","","","html-keyboard-response","99","443113","0.0-63.0","30","1","2025-01-25 16:24:53","af8d355d56820e421d246a7037deb6e6","161.77.41.86","Mozilla/5.0 (Windows NT 10.0; Win64; x64) AppleWebKit/537.36 (KHTML, like Gecko) Chrome/131.0.0.0 Safari/537.36","WebKit","Chrome","131.0.0.0","Windows","10.0","https://app.prolific.com/","en-US,en;q=0.9","6793751badf02fd55a1f0fb9","67949641171f97c04e14fb34","6795103909f635b61005d513","","null","<img   src='G_4.jpg' height='90'> <img id='selected'   src='G_2.jpg' height='90'> <img  src='G_7.jpg' height='90'> <img    src='G_5.jpg' height='90'> <img src='G_8.jpg' height='90'> <img src='G_6.jpg' height='90'> <img src='G_1.jpg' height='90'> <img src='G_3.jpg' height='90'>","null","Animation1",""
"","","","","","html-keyboard-response","100","443629","0.0-64.0","30","1","2025-01-25 16:24:53","af8d355d56820e421d246a7037deb6e6","161.77.41.86","Mozilla/5.0 (Windows NT 10.0; Win64; x64) AppleWebKit/537.36 (KHTML, like Gecko) Chrome/131.0.0.0 Safari/537.36","WebKit","Chrome","131.0.0.0","Windows","10.0","https://app.prolific.com/","en-US,en;q=0.9","6793751badf02fd55a1f0fb9","67949641171f97c04e14fb34","6795103909f635b61005d513","","null","<img   src='G_4.jpg' height='90'> <img id='selected'   src='G_2.jpg' height='90'> <img id='selected'  src='G_7.jpg' height='90'> <img    src='G_5.jpg' height='90'> <img src='G_8.jpg' height='90'> <img src='G_6.jpg' height='90'> <img src='G_1.jpg' height='90'> <img src='G_3.jpg' height='90'>","null","Animation1",""
"","","","","","html-keyboard-response","101","444144","0.0-65.0","30","1","2025-01-25 16:24:53","af8d355d56820e421d246a7037deb6e6","161.77.41.86","Mozilla/5.0 (Windows NT 10.0; Win64; x64) AppleWebKit/537.36 (KHTML, like Gecko) Chrome/131.0.0.0 Safari/537.36","WebKit","Chrome","131.0.0.0","Windows","10.0","https://app.prolific.com/","en-US,en;q=0.9","6793751badf02fd55a1f0fb9","67949641171f97c04e14fb34","6795103909f635b61005d513","","null","<img   src='G_4.jpg' height='90'> <img id='swapped'  src='G_7.jpg' height='90'> <img id='swapped'   src='G_2.jpg' height='90'> <img    src='G_5.jpg' height='90'> <img src='G_8.jpg' height='90'> <img src='G_6.jpg' height='90'> <img src='G_1.jpg' height='90'> <img src='G_3.jpg' height='90'>","null","Animation1",""
"","","","","","html-keyboard-response","102","444455","0.0-66.0","30","1","2025-01-25 16:24:53","af8d355d56820e421d246a7037deb6e6","161.77.41.86","Mozilla/5.0 (Windows NT 10.0; Win64; x64) AppleWebKit/537.36 (KHTML, like Gecko) Chrome/131.0.0.0 Safari/537.36","WebKit","Chrome","131.0.0.0","Windows","10.0","https://app.prolific.com/","en-US,en;q=0.9","6793751badf02fd55a1f0fb9","67949641171f97c04e14fb34","6795103909f635b61005d513","","null","<img   src='G_4.jpg' height='90'> <img   src='G_7.jpg' height='90'> <img    src='G_2.jpg' height='90'> <img    src='G_5.jpg' height='90'> <img src='G_8.jpg' height='90'> <img src='G_6.jpg' height='90'> <img src='G_1.jpg' height='90'> <img src='G_3.jpg' height='90'>","null","Animation1",""
"","","","","","html-keyboard-response","103","444969","0.0-67.0","30","1","2025-01-25 16:24:53","af8d355d56820e421d246a7037deb6e6","161.77.41.86","Mozilla/5.0 (Windows NT 10.0; Win64; x64) AppleWebKit/537.36 (KHTML, like Gecko) Chrome/131.0.0.0 Safari/537.36","WebKit","Chrome","131.0.0.0","Windows","10.0","https://app.prolific.com/","en-US,en;q=0.9","6793751badf02fd55a1f0fb9","67949641171f97c04e14fb34","6795103909f635b61005d513","","null","<img id='selected'   src='G_4.jpg' height='90'> <img   src='G_7.jpg' height='90'> <img    src='G_2.jpg' height='90'> <img    src='G_5.jpg' height='90'> <img src='G_8.jpg' height='90'> <img src='G_6.jpg' height='90'> <img src='G_1.jpg' height='90'> <img src='G_3.jpg' height='90'>","null","Animation1",""
"","","","","","html-keyboard-response","104","445484","0.0-68.0","30","1","2025-01-25 16:24:53","af8d355d56820e421d246a7037deb6e6","161.77.41.86","Mozilla/5.0 (Windows NT 10.0; Win64; x64) AppleWebKit/537.36 (KHTML, like Gecko) Chrome/131.0.0.0 Safari/537.36","WebKit","Chrome","131.0.0.0","Windows","10.0","https://app.prolific.com/","en-US,en;q=0.9","6793751badf02fd55a1f0fb9","67949641171f97c04e14fb34","6795103909f635b61005d513","","null","<img id='selected'   src='G_4.jpg' height='90'> <img id='selected'   src='G_7.jpg' height='90'> <img    src='G_2.jpg' height='90'> <img    src='G_5.jpg' height='90'> <img src='G_8.jpg' height='90'> <img src='G_6.jpg' height='90'> <img src='G_1.jpg' height='90'> <img src='G_3.jpg' height='90'>","null","Animation1",""
"","","","","","html-keyboard-response","105","445995","0.0-69.0","30","1","2025-01-25 16:24:53","af8d355d56820e421d246a7037deb6e6","161.77.41.86","Mozilla/5.0 (Windows NT 10.0; Win64; x64) AppleWebKit/537.36 (KHTML, like Gecko) Chrome/131.0.0.0 Safari/537.36","WebKit","Chrome","131.0.0.0","Windows","10.0","https://app.prolific.com/","en-US,en;q=0.9","6793751badf02fd55a1f0fb9","67949641171f97c04e14fb34","6795103909f635b61005d513","","null","<img id='swapped'   src='G_7.jpg' height='90'> <img id='swapped'   src='G_4.jpg' height='90'> <img    src='G_2.jpg' height='90'> <img    src='G_5.jpg' height='90'> <img src='G_8.jpg' height='90'> <img src='G_6.jpg' height='90'> <img src='G_1.jpg' height='90'> <img src='G_3.jpg' height='90'>","null","Animation1",""
"","","","","","html-keyboard-response","106","446322","0.0-70.0","30","1","2025-01-25 16:24:53","af8d355d56820e421d246a7037deb6e6","161.77.41.86","Mozilla/5.0 (Windows NT 10.0; Win64; x64) AppleWebKit/537.36 (KHTML, like Gecko) Chrome/131.0.0.0 Safari/537.36","WebKit","Chrome","131.0.0.0","Windows","10.0","https://app.prolific.com/","en-US,en;q=0.9","6793751badf02fd55a1f0fb9","67949641171f97c04e14fb34","6795103909f635b61005d513","","null","<img    src='G_7.jpg' height='90'> <img    src='G_4.jpg' height='90'> <img    src='G_2.jpg' height='90'> <img    src='G_5.jpg' height='90'> <img src='G_8.jpg' height='90'> <img src='G_6.jpg' height='90'> <img src='G_1.jpg' height='90'> <img src='G_3.jpg' height='90'>","null","Animation1",""
"","","","","","html-keyboard-response","107","446835","0.0-71.0","30","1","2025-01-25 16:24:53","af8d355d56820e421d246a7037deb6e6","161.77.41.86","Mozilla/5.0 (Windows NT 10.0; Win64; x64) AppleWebKit/537.36 (KHTML, like Gecko) Chrome/131.0.0.0 Safari/537.36","WebKit","Chrome","131.0.0.0","Windows","10.0","https://app.prolific.com/","en-US,en;q=0.9","6793751badf02fd55a1f0fb9","67949641171f97c04e14fb34","6795103909f635b61005d513","","null","<img    src='G_7.jpg' height='90'> <img    src='G_4.jpg' height='90'> <img    src='G_2.jpg' height='90'> <img id='selected'    src='G_5.jpg' height='90'> <img src='G_8.jpg' height='90'> <img src='G_6.jpg' height='90'> <img src='G_1.jpg' height='90'> <img src='G_3.jpg' height='90'>","null","Animation1",""
"","","","","","html-keyboard-response","108","447350","0.0-72.0","30","1","2025-01-25 16:24:53","af8d355d56820e421d246a7037deb6e6","161.77.41.86","Mozilla/5.0 (Windows NT 10.0; Win64; x64) AppleWebKit/537.36 (KHTML, like Gecko) Chrome/131.0.0.0 Safari/537.36","WebKit","Chrome","131.0.0.0","Windows","10.0","https://app.prolific.com/","en-US,en;q=0.9","6793751badf02fd55a1f0fb9","67949641171f97c04e14fb34","6795103909f635b61005d513","","null","<img    src='G_7.jpg' height='90'> <img    src='G_4.jpg' height='90'> <img    src='G_2.jpg' height='90'> <img id='selected'    src='G_5.jpg' height='90'> <img id='selected' src='G_8.jpg' height='90'> <img src='G_6.jpg' height='90'> <img src='G_1.jpg' height='90'> <img src='G_3.jpg' height='90'>","null","Animation1",""
"","","","","","html-keyboard-response","109","447866","0.0-73.0","30","1","2025-01-25 16:24:53","af8d355d56820e421d246a7037deb6e6","161.77.41.86","Mozilla/5.0 (Windows NT 10.0; Win64; x64) AppleWebKit/537.36 (KHTML, like Gecko) Chrome/131.0.0.0 Safari/537.36","WebKit","Chrome","131.0.0.0","Windows","10.0","https://app.prolific.com/","en-US,en;q=0.9","6793751badf02fd55a1f0fb9","67949641171f97c04e14fb34","6795103909f635b61005d513","","null","<img    src='G_7.jpg' height='90'> <img    src='G_4.jpg' height='90'> <img    src='G_2.jpg' height='90'> <img id='swapped' src='G_8.jpg' height='90'> <img id='swapped'    src='G_5.jpg' height='90'> <img src='G_6.jpg' height='90'> <img src='G_1.jpg' height='90'> <img src='G_3.jpg' height='90'>","null","Animation1",""
"","","","","","html-keyboard-response","110","448176","0.0-74.0","30","1","2025-01-25 16:24:53","af8d355d56820e421d246a7037deb6e6","161.77.41.86","Mozilla/5.0 (Windows NT 10.0; Win64; x64) AppleWebKit/537.36 (KHTML, like Gecko) Chrome/131.0.0.0 Safari/537.36","WebKit","Chrome","131.0.0.0","Windows","10.0","https://app.prolific.com/","en-US,en;q=0.9","6793751badf02fd55a1f0fb9","67949641171f97c04e14fb34","6795103909f635b61005d513","","null","<img    src='G_7.jpg' height='90'> <img    src='G_4.jpg' height='90'> <img    src='G_2.jpg' height='90'> <img  src='G_8.jpg' height='90'> <img     src='G_5.jpg' height='90'> <img src='G_6.jpg' height='90'> <img src='G_1.jpg' height='90'> <img src='G_3.jpg' height='90'>","null","Animation1",""
"","","","","","html-keyboard-response","111","448691","0.0-75.0","30","1","2025-01-25 16:24:53","af8d355d56820e421d246a7037deb6e6","161.77.41.86","Mozilla/5.0 (Windows NT 10.0; Win64; x64) AppleWebKit/537.36 (KHTML, like Gecko) Chrome/131.0.0.0 Safari/537.36","WebKit","Chrome","131.0.0.0","Windows","10.0","https://app.prolific.com/","en-US,en;q=0.9","6793751badf02fd55a1f0fb9","67949641171f97c04e14fb34","6795103909f635b61005d513","","null","<img    src='G_7.jpg' height='90'> <img    src='G_4.jpg' height='90'> <img id='selected'    src='G_2.jpg' height='90'> <img  src='G_8.jpg' height='90'> <img     src='G_5.jpg' height='90'> <img src='G_6.jpg' height='90'> <img src='G_1.jpg' height='90'> <img src='G_3.jpg' height='90'>","null","Animation1",""
"","","","","","html-keyboard-response","112","449202","0.0-76.0","30","1","2025-01-25 16:24:53","af8d355d56820e421d246a7037deb6e6","161.77.41.86","Mozilla/5.0 (Windows NT 10.0; Win64; x64) AppleWebKit/537.36 (KHTML, like Gecko) Chrome/131.0.0.0 Safari/537.36","WebKit","Chrome","131.0.0.0","Windows","10.0","https://app.prolific.com/","en-US,en;q=0.9","6793751badf02fd55a1f0fb9","67949641171f97c04e14fb34","6795103909f635b61005d513","","null","<img    src='G_7.jpg' height='90'> <img    src='G_4.jpg' height='90'> <img id='selected'    src='G_2.jpg' height='90'> <img id='selected'  src='G_8.jpg' height='90'> <img     src='G_5.jpg' height='90'> <img src='G_6.jpg' height='90'> <img src='G_1.jpg' height='90'> <img src='G_3.jpg' height='90'>","null","Animation1",""
"","","","","","html-keyboard-response","113","449714","0.0-77.0","30","1","2025-01-25 16:24:53","af8d355d56820e421d246a7037deb6e6","161.77.41.86","Mozilla/5.0 (Windows NT 10.0; Win64; x64) AppleWebKit/537.36 (KHTML, like Gecko) Chrome/131.0.0.0 Safari/537.36","WebKit","Chrome","131.0.0.0","Windows","10.0","https://app.prolific.com/","en-US,en;q=0.9","6793751badf02fd55a1f0fb9","67949641171f97c04e14fb34","6795103909f635b61005d513","","null","<img    src='G_7.jpg' height='90'> <img    src='G_4.jpg' height='90'> <img id='swapped'  src='G_8.jpg' height='90'> <img id='swapped'    src='G_2.jpg' height='90'> <img     src='G_5.jpg' height='90'> <img src='G_6.jpg' height='90'> <img src='G_1.jpg' height='90'> <img src='G_3.jpg' height='90'>","null","Animation1",""
"","","","","","html-keyboard-response","114","450040","0.0-78.0","30","1","2025-01-25 16:24:53","af8d355d56820e421d246a7037deb6e6","161.77.41.86","Mozilla/5.0 (Windows NT 10.0; Win64; x64) AppleWebKit/537.36 (KHTML, like Gecko) Chrome/131.0.0.0 Safari/537.36","WebKit","Chrome","131.0.0.0","Windows","10.0","https://app.prolific.com/","en-US,en;q=0.9","6793751badf02fd55a1f0fb9","67949641171f97c04e14fb34","6795103909f635b61005d513","","null","<img    src='G_7.jpg' height='90'> <img    src='G_4.jpg' height='90'> <img   src='G_8.jpg' height='90'> <img     src='G_2.jpg' height='90'> <img     src='G_5.jpg' height='90'> <img src='G_6.jpg' height='90'> <img src='G_1.jpg' height='90'> <img src='G_3.jpg' height='90'>","null","Animation1",""
"","","","","","html-keyboard-response","115","450552","0.0-79.0","30","1","2025-01-25 16:24:53","af8d355d56820e421d246a7037deb6e6","161.77.41.86","Mozilla/5.0 (Windows NT 10.0; Win64; x64) AppleWebKit/537.36 (KHTML, like Gecko) Chrome/131.0.0.0 Safari/537.36","WebKit","Chrome","131.0.0.0","Windows","10.0","https://app.prolific.com/","en-US,en;q=0.9","6793751badf02fd55a1f0fb9","67949641171f97c04e14fb34","6795103909f635b61005d513","","null","<img    src='G_7.jpg' height='90'> <img id='selected'    src='G_4.jpg' height='90'> <img   src='G_8.jpg' height='90'> <img     src='G_2.jpg' height='90'> <img     src='G_5.jpg' height='90'> <img src='G_6.jpg' height='90'> <img src='G_1.jpg' height='90'> <img src='G_3.jpg' height='90'>","null","Animation1",""
"","","","","","html-keyboard-response","116","451068","0.0-80.0","30","1","2025-01-25 16:24:53","af8d355d56820e421d246a7037deb6e6","161.77.41.86","Mozilla/5.0 (Windows NT 10.0; Win64; x64) AppleWebKit/537.36 (KHTML, like Gecko) Chrome/131.0.0.0 Safari/537.36","WebKit","Chrome","131.0.0.0","Windows","10.0","https://app.prolific.com/","en-US,en;q=0.9","6793751badf02fd55a1f0fb9","67949641171f97c04e14fb34","6795103909f635b61005d513","","null","<img    src='G_7.jpg' height='90'> <img id='selected'    src='G_4.jpg' height='90'> <img id='selected'   src='G_8.jpg' height='90'> <img     src='G_2.jpg' height='90'> <img     src='G_5.jpg' height='90'> <img src='G_6.jpg' height='90'> <img src='G_1.jpg' height='90'> <img src='G_3.jpg' height='90'>","null","Animation1",""
"","","","","","html-keyboard-response","117","451597","0.0-81.0","30","1","2025-01-25 16:24:53","af8d355d56820e421d246a7037deb6e6","161.77.41.86","Mozilla/5.0 (Windows NT 10.0; Win64; x64) AppleWebKit/537.36 (KHTML, like Gecko) Chrome/131.0.0.0 Safari/537.36","WebKit","Chrome","131.0.0.0","Windows","10.0","https://app.prolific.com/","en-US,en;q=0.9","6793751badf02fd55a1f0fb9","67949641171f97c04e14fb34","6795103909f635b61005d513","","null","<img    src='G_7.jpg' height='90'> <img id='swapped'   src='G_8.jpg' height='90'> <img id='swapped'    src='G_4.jpg' height='90'> <img     src='G_2.jpg' height='90'> <img     src='G_5.jpg' height='90'> <img src='G_6.jpg' height='90'> <img src='G_1.jpg' height='90'> <img src='G_3.jpg' height='90'>","null","Animation1",""
"","","","","","html-keyboard-response","118","451910","0.0-82.0","30","1","2025-01-25 16:24:53","af8d355d56820e421d246a7037deb6e6","161.77.41.86","Mozilla/5.0 (Windows NT 10.0; Win64; x64) AppleWebKit/537.36 (KHTML, like Gecko) Chrome/131.0.0.0 Safari/537.36","WebKit","Chrome","131.0.0.0","Windows","10.0","https://app.prolific.com/","en-US,en;q=0.9","6793751badf02fd55a1f0fb9","67949641171f97c04e14fb34","6795103909f635b61005d513","","null","<img    src='G_7.jpg' height='90'> <img    src='G_8.jpg' height='90'> <img     src='G_4.jpg' height='90'> <img     src='G_2.jpg' height='90'> <img     src='G_5.jpg' height='90'> <img src='G_6.jpg' height='90'> <img src='G_1.jpg' height='90'> <img src='G_3.jpg' height='90'>","null","Animation1",""
"","","","","","html-keyboard-response","119","452423","0.0-83.0","30","1","2025-01-25 16:24:53","af8d355d56820e421d246a7037deb6e6","161.77.41.86","Mozilla/5.0 (Windows NT 10.0; Win64; x64) AppleWebKit/537.36 (KHTML, like Gecko) Chrome/131.0.0.0 Safari/537.36","WebKit","Chrome","131.0.0.0","Windows","10.0","https://app.prolific.com/","en-US,en;q=0.9","6793751badf02fd55a1f0fb9","67949641171f97c04e14fb34","6795103909f635b61005d513","","null","<img id='selected'    src='G_7.jpg' height='90'> <img    src='G_8.jpg' height='90'> <img     src='G_4.jpg' height='90'> <img     src='G_2.jpg' height='90'> <img     src='G_5.jpg' height='90'> <img src='G_6.jpg' height='90'> <img src='G_1.jpg' height='90'> <img src='G_3.jpg' height='90'>","null","Animation1",""
"","","","","","html-keyboard-response","120","452938","0.0-84.0","30","1","2025-01-25 16:24:53","af8d355d56820e421d246a7037deb6e6","161.77.41.86","Mozilla/5.0 (Windows NT 10.0; Win64; x64) AppleWebKit/537.36 (KHTML, like Gecko) Chrome/131.0.0.0 Safari/537.36","WebKit","Chrome","131.0.0.0","Windows","10.0","https://app.prolific.com/","en-US,en;q=0.9","6793751badf02fd55a1f0fb9","67949641171f97c04e14fb34","6795103909f635b61005d513","","null","<img id='selected'    src='G_7.jpg' height='90'> <img id='selected'    src='G_8.jpg' height='90'> <img     src='G_4.jpg' height='90'> <img     src='G_2.jpg' height='90'> <img     src='G_5.jpg' height='90'> <img src='G_6.jpg' height='90'> <img src='G_1.jpg' height='90'> <img src='G_3.jpg' height='90'>","null","Animation1",""
"","","","","","html-keyboard-response","121","453453","0.0-85.0","30","1","2025-01-25 16:24:53","af8d355d56820e421d246a7037deb6e6","161.77.41.86","Mozilla/5.0 (Windows NT 10.0; Win64; x64) AppleWebKit/537.36 (KHTML, like Gecko) Chrome/131.0.0.0 Safari/537.36","WebKit","Chrome","131.0.0.0","Windows","10.0","https://app.prolific.com/","en-US,en;q=0.9","6793751badf02fd55a1f0fb9","67949641171f97c04e14fb34","6795103909f635b61005d513","","null","<img id='selected'    src='G_7.jpg' height='90'> <img id='selected'    src='G_8.jpg' height='90'> <img     src='G_4.jpg' height='90'> <img     src='G_2.jpg' height='90'> <img     src='G_5.jpg' height='90'> <img src='G_6.jpg' height='90'> <img src='G_1.jpg' height='90'> <img src='G_3.jpg' height='90'>","null","Animation1",""
"","","","","","html-keyboard-response","122","453767","0.0-86.0","30","1","2025-01-25 16:24:53","af8d355d56820e421d246a7037deb6e6","161.77.41.86","Mozilla/5.0 (Windows NT 10.0; Win64; x64) AppleWebKit/537.36 (KHTML, like Gecko) Chrome/131.0.0.0 Safari/537.36","WebKit","Chrome","131.0.0.0","Windows","10.0","https://app.prolific.com/","en-US,en;q=0.9","6793751badf02fd55a1f0fb9","67949641171f97c04e14fb34","6795103909f635b61005d513","","null","<img     src='G_7.jpg' height='90'> <img     src='G_8.jpg' height='90'> <img     src='G_4.jpg' height='90'> <img     src='G_2.jpg' height='90'> <img     src='G_5.jpg' height='90'> <img src='G_6.jpg' height='90'> <img src='G_1.jpg' height='90'> <img src='G_3.jpg' height='90'>","null","Animation1",""
"","","","","","html-keyboard-response","123","454281","0.0-87.0","30","1","2025-01-25 16:24:53","af8d355d56820e421d246a7037deb6e6","161.77.41.86","Mozilla/5.0 (Windows NT 10.0; Win64; x64) AppleWebKit/537.36 (KHTML, like Gecko) Chrome/131.0.0.0 Safari/537.36","WebKit","Chrome","131.0.0.0","Windows","10.0","https://app.prolific.com/","en-US,en;q=0.9","6793751badf02fd55a1f0fb9","67949641171f97c04e14fb34","6795103909f635b61005d513","","null","<img     src='G_7.jpg' height='90'> <img     src='G_8.jpg' height='90'> <img     src='G_4.jpg' height='90'> <img     src='G_2.jpg' height='90'> <img id='selected'     src='G_5.jpg' height='90'> <img src='G_6.jpg' height='90'> <img src='G_1.jpg' height='90'> <img src='G_3.jpg' height='90'>","null","Animation1",""
"","","","","","html-keyboard-response","124","454794","0.0-88.0","30","1","2025-01-25 16:24:53","af8d355d56820e421d246a7037deb6e6","161.77.41.86","Mozilla/5.0 (Windows NT 10.0; Win64; x64) AppleWebKit/537.36 (KHTML, like Gecko) Chrome/131.0.0.0 Safari/537.36","WebKit","Chrome","131.0.0.0","Windows","10.0","https://app.prolific.com/","en-US,en;q=0.9","6793751badf02fd55a1f0fb9","67949641171f97c04e14fb34","6795103909f635b61005d513","","null","<img     src='G_7.jpg' height='90'> <img     src='G_8.jpg' height='90'> <img     src='G_4.jpg' height='90'> <img     src='G_2.jpg' height='90'> <img id='selected'     src='G_5.jpg' height='90'> <img id='selected' src='G_6.jpg' height='90'> <img src='G_1.jpg' height='90'> <img src='G_3.jpg' height='90'>","null","Animation1",""
"","","","","","html-keyboard-response","125","455308","0.0-89.0","30","1","2025-01-25 16:24:53","af8d355d56820e421d246a7037deb6e6","161.77.41.86","Mozilla/5.0 (Windows NT 10.0; Win64; x64) AppleWebKit/537.36 (KHTML, like Gecko) Chrome/131.0.0.0 Safari/537.36","WebKit","Chrome","131.0.0.0","Windows","10.0","https://app.prolific.com/","en-US,en;q=0.9","6793751badf02fd55a1f0fb9","67949641171f97c04e14fb34","6795103909f635b61005d513","","null","<img     src='G_7.jpg' height='90'> <img     src='G_8.jpg' height='90'> <img     src='G_4.jpg' height='90'> <img     src='G_2.jpg' height='90'> <img id='swapped' src='G_6.jpg' height='90'> <img id='swapped'     src='G_5.jpg' height='90'> <img src='G_1.jpg' height='90'> <img src='G_3.jpg' height='90'>","null","Animation1",""
"","","","","","html-keyboard-response","126","455621","0.0-90.0","30","1","2025-01-25 16:24:53","af8d355d56820e421d246a7037deb6e6","161.77.41.86","Mozilla/5.0 (Windows NT 10.0; Win64; x64) AppleWebKit/537.36 (KHTML, like Gecko) Chrome/131.0.0.0 Safari/537.36","WebKit","Chrome","131.0.0.0","Windows","10.0","https://app.prolific.com/","en-US,en;q=0.9","6793751badf02fd55a1f0fb9","67949641171f97c04e14fb34","6795103909f635b61005d513","","null","<img     src='G_7.jpg' height='90'> <img     src='G_8.jpg' height='90'> <img     src='G_4.jpg' height='90'> <img     src='G_2.jpg' height='90'> <img  src='G_6.jpg' height='90'> <img      src='G_5.jpg' height='90'> <img src='G_1.jpg' height='90'> <img src='G_3.jpg' height='90'>","null","Animation1",""
"","","","","","html-keyboard-response","127","456136","0.0-91.0","30","1","2025-01-25 16:24:53","af8d355d56820e421d246a7037deb6e6","161.77.41.86","Mozilla/5.0 (Windows NT 10.0; Win64; x64) AppleWebKit/537.36 (KHTML, like Gecko) Chrome/131.0.0.0 Safari/537.36","WebKit","Chrome","131.0.0.0","Windows","10.0","https://app.prolific.com/","en-US,en;q=0.9","6793751badf02fd55a1f0fb9","67949641171f97c04e14fb34","6795103909f635b61005d513","","null","<img     src='G_7.jpg' height='90'> <img     src='G_8.jpg' height='90'> <img     src='G_4.jpg' height='90'> <img id='selected'     src='G_2.jpg' height='90'> <img  src='G_6.jpg' height='90'> <img      src='G_5.jpg' height='90'> <img src='G_1.jpg' height='90'> <img src='G_3.jpg' height='90'>","null","Animation1",""
"","","","","","html-keyboard-response","128","456648","0.0-92.0","30","1","2025-01-25 16:24:53","af8d355d56820e421d246a7037deb6e6","161.77.41.86","Mozilla/5.0 (Windows NT 10.0; Win64; x64) AppleWebKit/537.36 (KHTML, like Gecko) Chrome/131.0.0.0 Safari/537.36","WebKit","Chrome","131.0.0.0","Windows","10.0","https://app.prolific.com/","en-US,en;q=0.9","6793751badf02fd55a1f0fb9","67949641171f97c04e14fb34","6795103909f635b61005d513","","null","<img     src='G_7.jpg' height='90'> <img     src='G_8.jpg' height='90'> <img     src='G_4.jpg' height='90'> <img id='selected'     src='G_2.jpg' height='90'> <img id='selected'  src='G_6.jpg' height='90'> <img      src='G_5.jpg' height='90'> <img src='G_1.jpg' height='90'> <img src='G_3.jpg' height='90'>","null","Animation1",""
"","","","","","html-keyboard-response","129","457177","0.0-93.0","30","1","2025-01-25 16:24:53","af8d355d56820e421d246a7037deb6e6","161.77.41.86","Mozilla/5.0 (Windows NT 10.0; Win64; x64) AppleWebKit/537.36 (KHTML, like Gecko) Chrome/131.0.0.0 Safari/537.36","WebKit","Chrome","131.0.0.0","Windows","10.0","https://app.prolific.com/","en-US,en;q=0.9","6793751badf02fd55a1f0fb9","67949641171f97c04e14fb34","6795103909f635b61005d513","","null","<img     src='G_7.jpg' height='90'> <img     src='G_8.jpg' height='90'> <img     src='G_4.jpg' height='90'> <img id='selected'     src='G_2.jpg' height='90'> <img id='selected'  src='G_6.jpg' height='90'> <img      src='G_5.jpg' height='90'> <img src='G_1.jpg' height='90'> <img src='G_3.jpg' height='90'>","null","Animation1",""
"","","","","","html-keyboard-response","130","457489","0.0-94.0","30","1","2025-01-25 16:24:53","af8d355d56820e421d246a7037deb6e6","161.77.41.86","Mozilla/5.0 (Windows NT 10.0; Win64; x64) AppleWebKit/537.36 (KHTML, like Gecko) Chrome/131.0.0.0 Safari/537.36","WebKit","Chrome","131.0.0.0","Windows","10.0","https://app.prolific.com/","en-US,en;q=0.9","6793751badf02fd55a1f0fb9","67949641171f97c04e14fb34","6795103909f635b61005d513","","null","<img     src='G_7.jpg' height='90'> <img     src='G_8.jpg' height='90'> <img     src='G_4.jpg' height='90'> <img      src='G_2.jpg' height='90'> <img   src='G_6.jpg' height='90'> <img      src='G_5.jpg' height='90'> <img src='G_1.jpg' height='90'> <img src='G_3.jpg' height='90'>","null","Animation1",""
"","","","","","html-keyboard-response","131","458018","0.0-95.0","30","1","2025-01-25 16:24:53","af8d355d56820e421d246a7037deb6e6","161.77.41.86","Mozilla/5.0 (Windows NT 10.0; Win64; x64) AppleWebKit/537.36 (KHTML, like Gecko) Chrome/131.0.0.0 Safari/537.36","WebKit","Chrome","131.0.0.0","Windows","10.0","https://app.prolific.com/","en-US,en;q=0.9","6793751badf02fd55a1f0fb9","67949641171f97c04e14fb34","6795103909f635b61005d513","","null","<img     src='G_7.jpg' height='90'> <img     src='G_8.jpg' height='90'> <img     src='G_4.jpg' height='90'> <img      src='G_2.jpg' height='90'> <img   src='G_6.jpg' height='90'> <img id='selected'      src='G_5.jpg' height='90'> <img src='G_1.jpg' height='90'> <img src='G_3.jpg' height='90'>","null","Animation1",""
"","","","","","html-keyboard-response","132","458532","0.0-96.0","30","1","2025-01-25 16:24:53","af8d355d56820e421d246a7037deb6e6","161.77.41.86","Mozilla/5.0 (Windows NT 10.0; Win64; x64) AppleWebKit/537.36 (KHTML, like Gecko) Chrome/131.0.0.0 Safari/537.36","WebKit","Chrome","131.0.0.0","Windows","10.0","https://app.prolific.com/","en-US,en;q=0.9","6793751badf02fd55a1f0fb9","67949641171f97c04e14fb34","6795103909f635b61005d513","","null","<img     src='G_7.jpg' height='90'> <img     src='G_8.jpg' height='90'> <img     src='G_4.jpg' height='90'> <img      src='G_2.jpg' height='90'> <img   src='G_6.jpg' height='90'> <img id='selected'      src='G_5.jpg' height='90'> <img id='selected' src='G_1.jpg' height='90'> <img src='G_3.jpg' height='90'>","null","Animation1",""
"","","","","","html-keyboard-response","133","459046","0.0-97.0","30","1","2025-01-25 16:24:53","af8d355d56820e421d246a7037deb6e6","161.77.41.86","Mozilla/5.0 (Windows NT 10.0; Win64; x64) AppleWebKit/537.36 (KHTML, like Gecko) Chrome/131.0.0.0 Safari/537.36","WebKit","Chrome","131.0.0.0","Windows","10.0","https://app.prolific.com/","en-US,en;q=0.9","6793751badf02fd55a1f0fb9","67949641171f97c04e14fb34","6795103909f635b61005d513","","null","<img     src='G_7.jpg' height='90'> <img     src='G_8.jpg' height='90'> <img     src='G_4.jpg' height='90'> <img      src='G_2.jpg' height='90'> <img   src='G_6.jpg' height='90'> <img id='selected'      src='G_5.jpg' height='90'> <img id='selected' src='G_1.jpg' height='90'> <img src='G_3.jpg' height='90'>","null","Animation1",""
"","","","","","html-keyboard-response","134","459359","0.0-98.0","30","1","2025-01-25 16:24:53","af8d355d56820e421d246a7037deb6e6","161.77.41.86","Mozilla/5.0 (Windows NT 10.0; Win64; x64) AppleWebKit/537.36 (KHTML, like Gecko) Chrome/131.0.0.0 Safari/537.36","WebKit","Chrome","131.0.0.0","Windows","10.0","https://app.prolific.com/","en-US,en;q=0.9","6793751badf02fd55a1f0fb9","67949641171f97c04e14fb34","6795103909f635b61005d513","","null","<img     src='G_7.jpg' height='90'> <img     src='G_8.jpg' height='90'> <img     src='G_4.jpg' height='90'> <img      src='G_2.jpg' height='90'> <img   src='G_6.jpg' height='90'> <img       src='G_5.jpg' height='90'> <img  src='G_1.jpg' height='90'> <img src='G_3.jpg' height='90'>","null","Animation1",""
"","","","","","html-keyboard-response","135","459875","0.0-99.0","30","1","2025-01-25 16:24:53","af8d355d56820e421d246a7037deb6e6","161.77.41.86","Mozilla/5.0 (Windows NT 10.0; Win64; x64) AppleWebKit/537.36 (KHTML, like Gecko) Chrome/131.0.0.0 Safari/537.36","WebKit","Chrome","131.0.0.0","Windows","10.0","https://app.prolific.com/","en-US,en;q=0.9","6793751badf02fd55a1f0fb9","67949641171f97c04e14fb34","6795103909f635b61005d513","","null","<img     src='G_7.jpg' height='90'> <img     src='G_8.jpg' height='90'> <img     src='G_4.jpg' height='90'> <img      src='G_2.jpg' height='90'> <img   src='G_6.jpg' height='90'> <img       src='G_5.jpg' height='90'> <img id='selected'  src='G_1.jpg' height='90'> <img src='G_3.jpg' height='90'>","null","Animation1",""
"","","","","","html-keyboard-response","136","460389","0.0-100.0","30","1","2025-01-25 16:24:53","af8d355d56820e421d246a7037deb6e6","161.77.41.86","Mozilla/5.0 (Windows NT 10.0; Win64; x64) AppleWebKit/537.36 (KHTML, like Gecko) Chrome/131.0.0.0 Safari/537.36","WebKit","Chrome","131.0.0.0","Windows","10.0","https://app.prolific.com/","en-US,en;q=0.9","6793751badf02fd55a1f0fb9","67949641171f97c04e14fb34","6795103909f635b61005d513","","null","<img     src='G_7.jpg' height='90'> <img     src='G_8.jpg' height='90'> <img     src='G_4.jpg' height='90'> <img      src='G_2.jpg' height='90'> <img   src='G_6.jpg' height='90'> <img       src='G_5.jpg' height='90'> <img id='selected'  src='G_1.jpg' height='90'> <img id='selected' src='G_3.jpg' height='90'>","null","Animation1",""
"","","","","","html-keyboard-response","137","460901","0.0-101.0","30","1","2025-01-25 16:24:53","af8d355d56820e421d246a7037deb6e6","161.77.41.86","Mozilla/5.0 (Windows NT 10.0; Win64; x64) AppleWebKit/537.36 (KHTML, like Gecko) Chrome/131.0.0.0 Safari/537.36","WebKit","Chrome","131.0.0.0","Windows","10.0","https://app.prolific.com/","en-US,en;q=0.9","6793751badf02fd55a1f0fb9","67949641171f97c04e14fb34","6795103909f635b61005d513","","null","<img     src='G_7.jpg' height='90'> <img     src='G_8.jpg' height='90'> <img     src='G_4.jpg' height='90'> <img      src='G_2.jpg' height='90'> <img   src='G_6.jpg' height='90'> <img       src='G_5.jpg' height='90'> <img id='swapped' src='G_3.jpg' height='90'> <img id='swapped'  src='G_1.jpg' height='90'>","null","Animation1",""
"","","","","","html-keyboard-response","138","461227","0.0-102.0","30","1","2025-01-25 16:24:53","af8d355d56820e421d246a7037deb6e6","161.77.41.86","Mozilla/5.0 (Windows NT 10.0; Win64; x64) AppleWebKit/537.36 (KHTML, like Gecko) Chrome/131.0.0.0 Safari/537.36","WebKit","Chrome","131.0.0.0","Windows","10.0","https://app.prolific.com/","en-US,en;q=0.9","6793751badf02fd55a1f0fb9","67949641171f97c04e14fb34","6795103909f635b61005d513","","null","<img     src='G_7.jpg' height='90'> <img     src='G_8.jpg' height='90'> <img     src='G_4.jpg' height='90'> <img      src='G_2.jpg' height='90'> <img   src='G_6.jpg' height='90'> <img       src='G_5.jpg' height='90'> <img  src='G_3.jpg' height='90'> <img   src='G_1.jpg' height='90'>","null","Animation1",""
"","","","","","html-keyboard-response","139","461743","0.0-103.0","30","1","2025-01-25 16:24:53","af8d355d56820e421d246a7037deb6e6","161.77.41.86","Mozilla/5.0 (Windows NT 10.0; Win64; x64) AppleWebKit/537.36 (KHTML, like Gecko) Chrome/131.0.0.0 Safari/537.36","WebKit","Chrome","131.0.0.0","Windows","10.0","https://app.prolific.com/","en-US,en;q=0.9","6793751badf02fd55a1f0fb9","67949641171f97c04e14fb34","6795103909f635b61005d513","","null","<img     src='G_7.jpg' height='90'> <img     src='G_8.jpg' height='90'> <img     src='G_4.jpg' height='90'> <img      src='G_2.jpg' height='90'> <img   src='G_6.jpg' height='90'> <img id='selected'       src='G_5.jpg' height='90'> <img  src='G_3.jpg' height='90'> <img   src='G_1.jpg' height='90'>","null","Animation1",""
"","","","","","html-keyboard-response","140","462260","0.0-104.0","30","1","2025-01-25 16:24:53","af8d355d56820e421d246a7037deb6e6","161.77.41.86","Mozilla/5.0 (Windows NT 10.0; Win64; x64) AppleWebKit/537.36 (KHTML, like Gecko) Chrome/131.0.0.0 Safari/537.36","WebKit","Chrome","131.0.0.0","Windows","10.0","https://app.prolific.com/","en-US,en;q=0.9","6793751badf02fd55a1f0fb9","67949641171f97c04e14fb34","6795103909f635b61005d513","","null","<img     src='G_7.jpg' height='90'> <img     src='G_8.jpg' height='90'> <img     src='G_4.jpg' height='90'> <img      src='G_2.jpg' height='90'> <img   src='G_6.jpg' height='90'> <img id='selected'       src='G_5.jpg' height='90'> <img id='selected'  src='G_3.jpg' height='90'> <img   src='G_1.jpg' height='90'>","null","Animation1",""
"","","","","","html-keyboard-response","141","462777","0.0-105.0","30","1","2025-01-25 16:24:53","af8d355d56820e421d246a7037deb6e6","161.77.41.86","Mozilla/5.0 (Windows NT 10.0; Win64; x64) AppleWebKit/537.36 (KHTML, like Gecko) Chrome/131.0.0.0 Safari/537.36","WebKit","Chrome","131.0.0.0","Windows","10.0","https://app.prolific.com/","en-US,en;q=0.9","6793751badf02fd55a1f0fb9","67949641171f97c04e14fb34","6795103909f635b61005d513","","null","<img     src='G_7.jpg' height='90'> <img     src='G_8.jpg' height='90'> <img     src='G_4.jpg' height='90'> <img      src='G_2.jpg' height='90'> <img   src='G_6.jpg' height='90'> <img id='selected'       src='G_5.jpg' height='90'> <img id='selected'  src='G_3.jpg' height='90'> <img   src='G_1.jpg' height='90'>","null","Animation1",""
"","","","","","html-keyboard-response","142","463089","0.0-106.0","30","1","2025-01-25 16:24:53","af8d355d56820e421d246a7037deb6e6","161.77.41.86","Mozilla/5.0 (Windows NT 10.0; Win64; x64) AppleWebKit/537.36 (KHTML, like Gecko) Chrome/131.0.0.0 Safari/537.36","WebKit","Chrome","131.0.0.0","Windows","10.0","https://app.prolific.com/","en-US,en;q=0.9","6793751badf02fd55a1f0fb9","67949641171f97c04e14fb34","6795103909f635b61005d513","","null","<img     src='G_7.jpg' height='90'> <img     src='G_8.jpg' height='90'> <img     src='G_4.jpg' height='90'> <img      src='G_2.jpg' height='90'> <img   src='G_6.jpg' height='90'> <img        src='G_5.jpg' height='90'> <img   src='G_3.jpg' height='90'> <img   src='G_1.jpg' height='90'>","null","Animation1",""
"","","","","","html-keyboard-response","143","466950","0.0-107.0","30","1","2025-01-25 16:24:53","af8d355d56820e421d246a7037deb6e6","161.77.41.86","Mozilla/5.0 (Windows NT 10.0; Win64; x64) AppleWebKit/537.36 (KHTML, like Gecko) Chrome/131.0.0.0 Safari/537.36","WebKit","Chrome","131.0.0.0","Windows","10.0","https://app.prolific.com/","en-US,en;q=0.9","6793751badf02fd55a1f0fb9","67949641171f97c04e14fb34","6795103909f635b61005d513","","3853","[""Did you notice any patterns? <br><br>Press Enter to watch that example again and follow the steps of Omgne Sort.""]","enter","",""
"","","","","","html-button-response","144","467364","0.0-108.0","30","1","2025-01-25 16:24:53","af8d355d56820e421d246a7037deb6e6","161.77.41.86","Mozilla/5.0 (Windows NT 10.0; Win64; x64) AppleWebKit/537.36 (KHTML, like Gecko) Chrome/131.0.0.0 Safari/537.36","WebKit","Chrome","131.0.0.0","Windows","10.0","https://app.prolific.com/","en-US,en;q=0.9","6793751badf02fd55a1f0fb9","67949641171f97c04e14fb34","6795103909f635b61005d513","","null","<img id='selected' src='G_2.jpg' height='90'> <img src='G_5.jpg' height='90'> <img src='G_4.jpg' height='90'> <img src='G_7.jpg' height='90'> <img src='G_8.jpg' height='90'> <img src='G_6.jpg' height='90'> <img src='G_1.jpg' height='90'> <img src='G_3.jpg' height='90'>","null","Learning example 1",""
"","","","","","html-button-response","145","467692","0.0-109.0","30","1","2025-01-25 16:24:53","af8d355d56820e421d246a7037deb6e6","161.77.41.86","Mozilla/5.0 (Windows NT 10.0; Win64; x64) AppleWebKit/537.36 (KHTML, like Gecko) Chrome/131.0.0.0 Safari/537.36","WebKit","Chrome","131.0.0.0","Windows","10.0","https://app.prolific.com/","en-US,en;q=0.9","6793751badf02fd55a1f0fb9","67949641171f97c04e14fb34","6795103909f635b61005d513","","null","<img id='selected' src='G_2.jpg' height='90'> <img id='selected' src='G_5.jpg' height='90'> <img src='G_4.jpg' height='90'> <img src='G_7.jpg' height='90'> <img src='G_8.jpg' height='90'> <img src='G_6.jpg' height='90'> <img src='G_1.jpg' height='90'> <img src='G_3.jpg' height='90'>","null","Learning example 1",""
"","","","","","html-button-response","146","468018","0.0-110.0","30","1","2025-01-25 16:24:53","af8d355d56820e421d246a7037deb6e6","161.77.41.86","Mozilla/5.0 (Windows NT 10.0; Win64; x64) AppleWebKit/537.36 (KHTML, like Gecko) Chrome/131.0.0.0 Safari/537.36","WebKit","Chrome","131.0.0.0","Windows","10.0","https://app.prolific.com/","en-US,en;q=0.9","6793751badf02fd55a1f0fb9","67949641171f97c04e14fb34","6795103909f635b61005d513","","null","<img id='selected' src='G_2.jpg' height='90'> <img id='selected' src='G_5.jpg' height='90'> <img src='G_4.jpg' height='90'> <img src='G_7.jpg' height='90'> <img src='G_8.jpg' height='90'> <img src='G_6.jpg' height='90'> <img src='G_1.jpg' height='90'> <img src='G_3.jpg' height='90'>","null","Learning example 1",""
"","","","","","html-button-response","147","484275","0.0-111.0-0.0-0.0","30","1","2025-01-25 16:24:53","af8d355d56820e421d246a7037deb6e6","161.77.41.86","Mozilla/5.0 (Windows NT 10.0; Win64; x64) AppleWebKit/537.36 (KHTML, like Gecko) Chrome/131.0.0.0 Safari/537.36","WebKit","Chrome","131.0.0.0","Windows","10.0","https://app.prolific.com/","en-US,en;q=0.9","6793751badf02fd55a1f0fb9","67949641171f97c04e14fb34","6795103909f635b61005d513","","16245","<img id='selected' src='G_2.jpg' height='90'> <img id='selected' src='G_5.jpg' height='90'> <img src='G_4.jpg' height='90'> <img src='G_7.jpg' height='90'> <img src='G_8.jpg' height='90'> <img src='G_6.jpg' height='90'> <img src='G_1.jpg' height='90'> <img src='G_3.jpg' height='90'>","0","Learning example 1",""
