"success","timeout","failed_images","failed_audio","failed_video","trial_type","trial_index","time_elapsed","internal_node_id","run_id","condition","recorded_at","source_code_version","ip","user_agent","device","browser","browser_version","platform","platform_version","referer","accept_language","PROLIFIC_PID","STUDY_ID","SESSION_ID","view_history","rt","stimulus","response","phase","question_order"
"true","false","[]","[]","[]","preload","0","13447","0.0-0.0","31","1","2025-01-25 16:31:45","af8d355d56820e421d246a7037deb6e6","104.218.199.22","Mozilla/5.0 (Windows NT 10.0; Win64; x64) AppleWebKit/537.36 (KHTML, like Gecko) Chrome/128.0.0.0 Safari/537.36","WebKit","Chrome","128.0.0.0","Windows","10.0","https://app.prolific.com/","en-US,en;q=0.9","66a0172986186ec228714d51","67949641171f97c04e14fb34","679511de6387b4fb6be31979","","","","","",""
"","","","","","instructions","1","40410","0.0-1.0","31","1","2025-01-25 16:31:45","af8d355d56820e421d246a7037deb6e6","104.218.199.22","Mozilla/5.0 (Windows NT 10.0; Win64; x64) AppleWebKit/537.36 (KHTML, like Gecko) Chrome/128.0.0.0 Safari/537.36","WebKit","Chrome","128.0.0.0","Windows","10.0","https://app.prolific.com/","en-US,en;q=0.9","66a0172986186ec228714d51","67949641171f97c04e14fb34","679511de6387b4fb6be31979","[{""page_index"":0,""viewing_time"":26956}]","26957","","","",""
"","","","","","html-keyboard-response","2","40918","0.0-2.0","31","1","2025-01-25 16:31:45","af8d355d56820e421d246a7037deb6e6","104.218.199.22","Mozilla/5.0 (Windows NT 10.0; Win64; x64) AppleWebKit/537.36 (KHTML, like Gecko) Chrome/128.0.0.0 Safari/537.36","WebKit","Chrome","128.0.0.0","Windows","10.0","https://app.prolific.com/","en-US,en;q=0.9","66a0172986186ec228714d51","67949641171f97c04e14fb34","679511de6387b4fb6be31979","","null","<p> + <p/>","null","",""
"","","","","","instructions","3","94874","0.0-3.0","31","1","2025-01-25 16:31:45","af8d355d56820e421d246a7037deb6e6","104.218.199.22","Mozilla/5.0 (Windows NT 10.0; Win64; x64) AppleWebKit/537.36 (KHTML, like Gecko) Chrome/128.0.0.0 Safari/537.36","WebKit","Chrome","128.0.0.0","Windows","10.0","https://app.prolific.com/","en-US,en;q=0.9","66a0172986186ec228714d51","67949641171f97c04e14fb34","679511de6387b4fb6be31979","[{""page_index"":0,""viewing_time"":4447},{""page_index"":1,""viewing_time"":19847},{""page_index"":2,""viewing_time"":16833},{""page_index"":3,""viewing_time"":5041},{""page_index"":4,""viewing_time"":7787}]","53955","","","",""
"","","","","","html-button-response","4","101954","0.0-4.0-0.0-0.0","31","1","2025-01-25 16:31:45","af8d355d56820e421d246a7037deb6e6","104.218.199.22","Mozilla/5.0 (Windows NT 10.0; Win64; x64) AppleWebKit/537.36 (KHTML, like Gecko) Chrome/128.0.0.0 Safari/537.36","WebKit","Chrome","128.0.0.0","Windows","10.0","https://app.prolific.com/","en-US,en;q=0.9","66a0172986186ec228714d51","67949641171f97c04e14fb34","679511de6387b4fb6be31979","","7076","","3","Intro Trial",""
"","","","","","html-button-response","5","102591","0.0-4.1-0.1-0.1","31","1","2025-01-25 16:31:45","af8d355d56820e421d246a7037deb6e6","104.218.199.22","Mozilla/5.0 (Windows NT 10.0; Win64; x64) AppleWebKit/537.36 (KHTML, like Gecko) Chrome/128.0.0.0 Safari/537.36","WebKit","Chrome","128.0.0.0","Windows","10.0","https://app.prolific.com/","en-US,en;q=0.9","66a0172986186ec228714d51","67949641171f97c04e14fb34","679511de6387b4fb6be31979","","633","","2","Intro Trial",""
"","","","","","html-button-response","6","103793","0.0-4.2-0.2-0.2","31","1","2025-01-25 16:31:45","af8d355d56820e421d246a7037deb6e6","104.218.199.22","Mozilla/5.0 (Windows NT 10.0; Win64; x64) AppleWebKit/537.36 (KHTML, like Gecko) Chrome/128.0.0.0 Safari/537.36","WebKit","Chrome","128.0.0.0","Windows","10.0","https://app.prolific.com/","en-US,en;q=0.9","66a0172986186ec228714d51","67949641171f97c04e14fb34","679511de6387b4fb6be31979","","1197","","2","Intro Trial",""
"","","","","","html-button-response","7","104752","0.0-4.3-0.3-0.3","31","1","2025-01-25 16:31:45","af8d355d56820e421d246a7037deb6e6","104.218.199.22","Mozilla/5.0 (Windows NT 10.0; Win64; x64) AppleWebKit/537.36 (KHTML, like Gecko) Chrome/128.0.0.0 Safari/537.36","WebKit","Chrome","128.0.0.0","Windows","10.0","https://app.prolific.com/","en-US,en;q=0.9","66a0172986186ec228714d51","67949641171f97c04e14fb34","679511de6387b4fb6be31979","","954","","3","Intro Trial",""
"","","","","","html-button-response","8","105417","0.0-4.4-0.4-0.4","31","1","2025-01-25 16:31:45","af8d355d56820e421d246a7037deb6e6","104.218.199.22","Mozilla/5.0 (Windows NT 10.0; Win64; x64) AppleWebKit/537.36 (KHTML, like Gecko) Chrome/128.0.0.0 Safari/537.36","WebKit","Chrome","128.0.0.0","Windows","10.0","https://app.prolific.com/","en-US,en;q=0.9","66a0172986186ec228714d51","67949641171f97c04e14fb34","679511de6387b4fb6be31979","","660","","3","Intro Trial",""
"","","","","","html-button-response","9","106424","0.0-4.5-0.5-0.5","31","1","2025-01-25 16:31:45","af8d355d56820e421d246a7037deb6e6","104.218.199.22","Mozilla/5.0 (Windows NT 10.0; Win64; x64) AppleWebKit/537.36 (KHTML, like Gecko) Chrome/128.0.0.0 Safari/537.36","WebKit","Chrome","128.0.0.0","Windows","10.0","https://app.prolific.com/","en-US,en;q=0.9","66a0172986186ec228714d51","67949641171f97c04e14fb34","679511de6387b4fb6be31979","","1002","","2","Intro Trial",""
"","","","","","html-button-response","10","109368","0.0-4.6-0.6-0.6","31","1","2025-01-25 16:31:45","af8d355d56820e421d246a7037deb6e6","104.218.199.22","Mozilla/5.0 (Windows NT 10.0; Win64; x64) AppleWebKit/537.36 (KHTML, like Gecko) Chrome/128.0.0.0 Safari/537.36","WebKit","Chrome","128.0.0.0","Windows","10.0","https://app.prolific.com/","en-US,en;q=0.9","66a0172986186ec228714d51","67949641171f97c04e14fb34","679511de6387b4fb6be31979","","2939","","3","Intro Trial",""
"","","","","","html-button-response","11","110543","0.0-4.7-0.7-0.7","31","1","2025-01-25 16:31:45","af8d355d56820e421d246a7037deb6e6","104.218.199.22","Mozilla/5.0 (Windows NT 10.0; Win64; x64) AppleWebKit/537.36 (KHTML, like Gecko) Chrome/128.0.0.0 Safari/537.36","WebKit","Chrome","128.0.0.0","Windows","10.0","https://app.prolific.com/","en-US,en;q=0.9","66a0172986186ec228714d51","67949641171f97c04e14fb34","679511de6387b4fb6be31979","","1170","","2","Intro Trial",""
"","","","","","html-button-response","12","112159","0.0-4.8-0.8-0.8","31","1","2025-01-25 16:31:45","af8d355d56820e421d246a7037deb6e6","104.218.199.22","Mozilla/5.0 (Windows NT 10.0; Win64; x64) AppleWebKit/537.36 (KHTML, like Gecko) Chrome/128.0.0.0 Safari/537.36","WebKit","Chrome","128.0.0.0","Windows","10.0","https://app.prolific.com/","en-US,en;q=0.9","66a0172986186ec228714d51","67949641171f97c04e14fb34","679511de6387b4fb6be31979","","1610","","2","Intro Trial",""
"","","","","","html-button-response","13","119384","0.0-4.9-0.9-0.9","31","1","2025-01-25 16:31:45","af8d355d56820e421d246a7037deb6e6","104.218.199.22","Mozilla/5.0 (Windows NT 10.0; Win64; x64) AppleWebKit/537.36 (KHTML, like Gecko) Chrome/128.0.0.0 Safari/537.36","WebKit","Chrome","128.0.0.0","Windows","10.0","https://app.prolific.com/","en-US,en;q=0.9","66a0172986186ec228714d51","67949641171f97c04e14fb34","679511de6387b4fb6be31979","","7221","","1","Intro Trial",""
"","","","","","html-button-response","14","120864","0.0-4.10-0.10-0.10","31","1","2025-01-25 16:31:45","af8d355d56820e421d246a7037deb6e6","104.218.199.22","Mozilla/5.0 (Windows NT 10.0; Win64; x64) AppleWebKit/537.36 (KHTML, like Gecko) Chrome/128.0.0.0 Safari/537.36","WebKit","Chrome","128.0.0.0","Windows","10.0","https://app.prolific.com/","en-US,en;q=0.9","66a0172986186ec228714d51","67949641171f97c04e14fb34","679511de6387b4fb6be31979","","1475","","3","Intro Trial",""
"","","","","","html-button-response","15","122032","0.0-4.11-0.11-0.11","31","1","2025-01-25 16:31:45","af8d355d56820e421d246a7037deb6e6","104.218.199.22","Mozilla/5.0 (Windows NT 10.0; Win64; x64) AppleWebKit/537.36 (KHTML, like Gecko) Chrome/128.0.0.0 Safari/537.36","WebKit","Chrome","128.0.0.0","Windows","10.0","https://app.prolific.com/","en-US,en;q=0.9","66a0172986186ec228714d51","67949641171f97c04e14fb34","679511de6387b4fb6be31979","","1164","","1","Intro Trial",""
"","","","","","html-button-response","16","122799","0.0-4.12-0.12-0.12","31","1","2025-01-25 16:31:45","af8d355d56820e421d246a7037deb6e6","104.218.199.22","Mozilla/5.0 (Windows NT 10.0; Win64; x64) AppleWebKit/537.36 (KHTML, like Gecko) Chrome/128.0.0.0 Safari/537.36","WebKit","Chrome","128.0.0.0","Windows","10.0","https://app.prolific.com/","en-US,en;q=0.9","66a0172986186ec228714d51","67949641171f97c04e14fb34","679511de6387b4fb6be31979","","763","","1","Intro Trial",""
"","","","","","html-button-response","17","123009","0.0-4.13-0.13-0.13","31","1","2025-01-25 16:31:45","af8d355d56820e421d246a7037deb6e6","104.218.199.22","Mozilla/5.0 (Windows NT 10.0; Win64; x64) AppleWebKit/537.36 (KHTML, like Gecko) Chrome/128.0.0.0 Safari/537.36","WebKit","Chrome","128.0.0.0","Windows","10.0","https://app.prolific.com/","en-US,en;q=0.9","66a0172986186ec228714d51","67949641171f97c04e14fb34","679511de6387b4fb6be31979","","209","","1","Intro Trial",""
"","","","","","html-button-response","18","123633","0.0-4.14-0.14-0.14","31","1","2025-01-25 16:31:45","af8d355d56820e421d246a7037deb6e6","104.218.199.22","Mozilla/5.0 (Windows NT 10.0; Win64; x64) AppleWebKit/537.36 (KHTML, like Gecko) Chrome/128.0.0.0 Safari/537.36","WebKit","Chrome","128.0.0.0","Windows","10.0","https://app.prolific.com/","en-US,en;q=0.9","66a0172986186ec228714d51","67949641171f97c04e14fb34","679511de6387b4fb6be31979","","622","","1","Intro Trial",""
"","","","","","html-button-response","19","124807","0.0-4.15-0.15-0.15","31","1","2025-01-25 16:31:45","af8d355d56820e421d246a7037deb6e6","104.218.199.22","Mozilla/5.0 (Windows NT 10.0; Win64; x64) AppleWebKit/537.36 (KHTML, like Gecko) Chrome/128.0.0.0 Safari/537.36","WebKit","Chrome","128.0.0.0","Windows","10.0","https://app.prolific.com/","en-US,en;q=0.9","66a0172986186ec228714d51","67949641171f97c04e14fb34","679511de6387b4fb6be31979","","1172","","3","Intro Trial",""
"","","","","","html-button-response","20","125039","0.0-4.16-0.16-0.16","31","1","2025-01-25 16:31:45","af8d355d56820e421d246a7037deb6e6","104.218.199.22","Mozilla/5.0 (Windows NT 10.0; Win64; x64) AppleWebKit/537.36 (KHTML, like Gecko) Chrome/128.0.0.0 Safari/537.36","WebKit","Chrome","128.0.0.0","Windows","10.0","https://app.prolific.com/","en-US,en;q=0.9","66a0172986186ec228714d51","67949641171f97c04e14fb34","679511de6387b4fb6be31979","","230","","3","Intro Trial",""
"","","","","","html-button-response","21","130038","0.0-4.17-0.17-0.17","31","1","2025-01-25 16:31:45","af8d355d56820e421d246a7037deb6e6","104.218.199.22","Mozilla/5.0 (Windows NT 10.0; Win64; x64) AppleWebKit/537.36 (KHTML, like Gecko) Chrome/128.0.0.0 Safari/537.36","WebKit","Chrome","128.0.0.0","Windows","10.0","https://app.prolific.com/","en-US,en;q=0.9","66a0172986186ec228714d51","67949641171f97c04e14fb34","679511de6387b4fb6be31979","","4996","","0","Intro Trial",""
"","","","","","html-button-response","22","130269","0.0-4.18-0.18-0.18","31","1","2025-01-25 16:31:45","af8d355d56820e421d246a7037deb6e6","104.218.199.22","Mozilla/5.0 (Windows NT 10.0; Win64; x64) AppleWebKit/537.36 (KHTML, like Gecko) Chrome/128.0.0.0 Safari/537.36","WebKit","Chrome","128.0.0.0","Windows","10.0","https://app.prolific.com/","en-US,en;q=0.9","66a0172986186ec228714d51","67949641171f97c04e14fb34","679511de6387b4fb6be31979","","226","","0","Intro Trial",""
"","","","","","html-button-response","23","131200","0.0-4.19-0.19-0.19","31","1","2025-01-25 16:31:45","af8d355d56820e421d246a7037deb6e6","104.218.199.22","Mozilla/5.0 (Windows NT 10.0; Win64; x64) AppleWebKit/537.36 (KHTML, like Gecko) Chrome/128.0.0.0 Safari/537.36","WebKit","Chrome","128.0.0.0","Windows","10.0","https://app.prolific.com/","en-US,en;q=0.9","66a0172986186ec228714d51","67949641171f97c04e14fb34","679511de6387b4fb6be31979","","926","","4","Intro Trial",""
"","","","","","html-button-response","24","131421","0.0-4.20-0.20-0.20","31","1","2025-01-25 16:31:45","af8d355d56820e421d246a7037deb6e6","104.218.199.22","Mozilla/5.0 (Windows NT 10.0; Win64; x64) AppleWebKit/537.36 (KHTML, like Gecko) Chrome/128.0.0.0 Safari/537.36","WebKit","Chrome","128.0.0.0","Windows","10.0","https://app.prolific.com/","en-US,en;q=0.9","66a0172986186ec228714d51","67949641171f97c04e14fb34","679511de6387b4fb6be31979","","217","","4","Intro Trial",""
"","","","","","html-button-response","25","133222","0.0-4.21-0.21-0.21","31","1","2025-01-25 16:31:45","af8d355d56820e421d246a7037deb6e6","104.218.199.22","Mozilla/5.0 (Windows NT 10.0; Win64; x64) AppleWebKit/537.36 (KHTML, like Gecko) Chrome/128.0.0.0 Safari/537.36","WebKit","Chrome","128.0.0.0","Windows","10.0","https://app.prolific.com/","en-US,en;q=0.9","66a0172986186ec228714d51","67949641171f97c04e14fb34","679511de6387b4fb6be31979","","1798","","1","Intro Trial",""
"","","","","","html-button-response","26","133438","0.0-4.22-0.22-0.22","31","1","2025-01-25 16:31:45","af8d355d56820e421d246a7037deb6e6","104.218.199.22","Mozilla/5.0 (Windows NT 10.0; Win64; x64) AppleWebKit/537.36 (KHTML, like Gecko) Chrome/128.0.0.0 Safari/537.36","WebKit","Chrome","128.0.0.0","Windows","10.0","https://app.prolific.com/","en-US,en;q=0.9","66a0172986186ec228714d51","67949641171f97c04e14fb34","679511de6387b4fb6be31979","","211","","1","Intro Trial",""
"","","","","","html-button-response","27","134298","0.0-4.23-0.23-0.23","31","1","2025-01-25 16:31:45","af8d355d56820e421d246a7037deb6e6","104.218.199.22","Mozilla/5.0 (Windows NT 10.0; Win64; x64) AppleWebKit/537.36 (KHTML, like Gecko) Chrome/128.0.0.0 Safari/537.36","WebKit","Chrome","128.0.0.0","Windows","10.0","https://app.prolific.com/","en-US,en;q=0.9","66a0172986186ec228714d51","67949641171f97c04e14fb34","679511de6387b4fb6be31979","","855","","3","Intro Trial",""
"","","","","","html-button-response","28","134563","0.0-4.24-0.24-0.24","31","1","2025-01-25 16:31:45","af8d355d56820e421d246a7037deb6e6","104.218.199.22","Mozilla/5.0 (Windows NT 10.0; Win64; x64) AppleWebKit/537.36 (KHTML, like Gecko) Chrome/128.0.0.0 Safari/537.36","WebKit","Chrome","128.0.0.0","Windows","10.0","https://app.prolific.com/","en-US,en;q=0.9","66a0172986186ec228714d51","67949641171f97c04e14fb34","679511de6387b4fb6be31979","","262","","3","Intro Trial",""
"","","","","","html-button-response","29","135474","0.0-4.25-0.25-0.25","31","1","2025-01-25 16:31:45","af8d355d56820e421d246a7037deb6e6","104.218.199.22","Mozilla/5.0 (Windows NT 10.0; Win64; x64) AppleWebKit/537.36 (KHTML, like Gecko) Chrome/128.0.0.0 Safari/537.36","WebKit","Chrome","128.0.0.0","Windows","10.0","https://app.prolific.com/","en-US,en;q=0.9","66a0172986186ec228714d51","67949641171f97c04e14fb34","679511de6387b4fb6be31979","","907","","2","Intro Trial",""
"","","","","","html-button-response","30","136249","0.0-4.26-0.26-0.26","31","1","2025-01-25 16:31:45","af8d355d56820e421d246a7037deb6e6","104.218.199.22","Mozilla/5.0 (Windows NT 10.0; Win64; x64) AppleWebKit/537.36 (KHTML, like Gecko) Chrome/128.0.0.0 Safari/537.36","WebKit","Chrome","128.0.0.0","Windows","10.0","https://app.prolific.com/","en-US,en;q=0.9","66a0172986186ec228714d51","67949641171f97c04e14fb34","679511de6387b4fb6be31979","","771","","0","Intro Trial",""
"","","","","","html-button-response","31","136474","0.0-4.27-0.27-0.27","31","1","2025-01-25 16:31:45","af8d355d56820e421d246a7037deb6e6","104.218.199.22","Mozilla/5.0 (Windows NT 10.0; Win64; x64) AppleWebKit/537.36 (KHTML, like Gecko) Chrome/128.0.0.0 Safari/537.36","WebKit","Chrome","128.0.0.0","Windows","10.0","https://app.prolific.com/","en-US,en;q=0.9","66a0172986186ec228714d51","67949641171f97c04e14fb34","679511de6387b4fb6be31979","","220","","0","Intro Trial",""
"","","","","","html-button-response","32","137096","0.0-4.28-0.28-0.28","31","1","2025-01-25 16:31:45","af8d355d56820e421d246a7037deb6e6","104.218.199.22","Mozilla/5.0 (Windows NT 10.0; Win64; x64) AppleWebKit/537.36 (KHTML, like Gecko) Chrome/128.0.0.0 Safari/537.36","WebKit","Chrome","128.0.0.0","Windows","10.0","https://app.prolific.com/","en-US,en;q=0.9","66a0172986186ec228714d51","67949641171f97c04e14fb34","679511de6387b4fb6be31979","","616","","2","Intro Trial",""
"","","","","","html-button-response","33","137314","0.0-4.29-0.29-0.29","31","1","2025-01-25 16:31:45","af8d355d56820e421d246a7037deb6e6","104.218.199.22","Mozilla/5.0 (Windows NT 10.0; Win64; x64) AppleWebKit/537.36 (KHTML, like Gecko) Chrome/128.0.0.0 Safari/537.36","WebKit","Chrome","128.0.0.0","Windows","10.0","https://app.prolific.com/","en-US,en;q=0.9","66a0172986186ec228714d51","67949641171f97c04e14fb34","679511de6387b4fb6be31979","","213","","2","Intro Trial",""
"","","","","","html-button-response","34","138124","0.0-4.30-0.30-0.30","31","1","2025-01-25 16:31:45","af8d355d56820e421d246a7037deb6e6","104.218.199.22","Mozilla/5.0 (Windows NT 10.0; Win64; x64) AppleWebKit/537.36 (KHTML, like Gecko) Chrome/128.0.0.0 Safari/537.36","WebKit","Chrome","128.0.0.0","Windows","10.0","https://app.prolific.com/","en-US,en;q=0.9","66a0172986186ec228714d51","67949641171f97c04e14fb34","679511de6387b4fb6be31979","","805","","0","Intro Trial",""
"","","","","","html-button-response","35","138363","0.0-4.31-0.31-0.31","31","1","2025-01-25 16:31:45","af8d355d56820e421d246a7037deb6e6","104.218.199.22","Mozilla/5.0 (Windows NT 10.0; Win64; x64) AppleWebKit/537.36 (KHTML, like Gecko) Chrome/128.0.0.0 Safari/537.36","WebKit","Chrome","128.0.0.0","Windows","10.0","https://app.prolific.com/","en-US,en;q=0.9","66a0172986186ec228714d51","67949641171f97c04e14fb34","679511de6387b4fb6be31979","","233","","0","Intro Trial",""
"","","","","","html-button-response","36","139182","0.0-4.32-0.32-0.32","31","1","2025-01-25 16:31:45","af8d355d56820e421d246a7037deb6e6","104.218.199.22","Mozilla/5.0 (Windows NT 10.0; Win64; x64) AppleWebKit/537.36 (KHTML, like Gecko) Chrome/128.0.0.0 Safari/537.36","WebKit","Chrome","128.0.0.0","Windows","10.0","https://app.prolific.com/","en-US,en;q=0.9","66a0172986186ec228714d51","67949641171f97c04e14fb34","679511de6387b4fb6be31979","","813","","0","Intro Trial",""
"","","","","","html-button-response","37","140210","0.0-4.33-0.33-0.33","31","1","2025-01-25 16:31:45","af8d355d56820e421d246a7037deb6e6","104.218.199.22","Mozilla/5.0 (Windows NT 10.0; Win64; x64) AppleWebKit/537.36 (KHTML, like Gecko) Chrome/128.0.0.0 Safari/537.36","WebKit","Chrome","128.0.0.0","Windows","10.0","https://app.prolific.com/","en-US,en;q=0.9","66a0172986186ec228714d51","67949641171f97c04e14fb34","679511de6387b4fb6be31979","","1022","","2","Intro Trial",""
"","","","","","html-button-response","38","140755","0.0-4.34-0.34-0.34","31","1","2025-01-25 16:31:45","af8d355d56820e421d246a7037deb6e6","104.218.199.22","Mozilla/5.0 (Windows NT 10.0; Win64; x64) AppleWebKit/537.36 (KHTML, like Gecko) Chrome/128.0.0.0 Safari/537.36","WebKit","Chrome","128.0.0.0","Windows","10.0","https://app.prolific.com/","en-US,en;q=0.9","66a0172986186ec228714d51","67949641171f97c04e14fb34","679511de6387b4fb6be31979","","540","","2","Intro Trial",""
"","","","","","html-button-response","39","140968","0.0-4.35-0.35-0.35","31","1","2025-01-25 16:31:45","af8d355d56820e421d246a7037deb6e6","104.218.199.22","Mozilla/5.0 (Windows NT 10.0; Win64; x64) AppleWebKit/537.36 (KHTML, like Gecko) Chrome/128.0.0.0 Safari/537.36","WebKit","Chrome","128.0.0.0","Windows","10.0","https://app.prolific.com/","en-US,en;q=0.9","66a0172986186ec228714d51","67949641171f97c04e14fb34","679511de6387b4fb6be31979","","208","","2","Intro Trial",""
"","","","","","html-button-response","40","141784","0.0-4.36-0.36-0.36","31","1","2025-01-25 16:31:45","af8d355d56820e421d246a7037deb6e6","104.218.199.22","Mozilla/5.0 (Windows NT 10.0; Win64; x64) AppleWebKit/537.36 (KHTML, like Gecko) Chrome/128.0.0.0 Safari/537.36","WebKit","Chrome","128.0.0.0","Windows","10.0","https://app.prolific.com/","en-US,en;q=0.9","66a0172986186ec228714d51","67949641171f97c04e14fb34","679511de6387b4fb6be31979","","810","","0","Intro Trial",""
"","","","","","html-button-response","41","142673","0.0-4.37-0.37-0.37","31","1","2025-01-25 16:31:45","af8d355d56820e421d246a7037deb6e6","104.218.199.22","Mozilla/5.0 (Windows NT 10.0; Win64; x64) AppleWebKit/537.36 (KHTML, like Gecko) Chrome/128.0.0.0 Safari/537.36","WebKit","Chrome","128.0.0.0","Windows","10.0","https://app.prolific.com/","en-US,en;q=0.9","66a0172986186ec228714d51","67949641171f97c04e14fb34","679511de6387b4fb6be31979","","883","","2","Intro Trial",""
"","","","","","html-button-response","42","142868","0.0-4.38-0.38-0.38","31","1","2025-01-25 16:31:45","af8d355d56820e421d246a7037deb6e6","104.218.199.22","Mozilla/5.0 (Windows NT 10.0; Win64; x64) AppleWebKit/537.36 (KHTML, like Gecko) Chrome/128.0.0.0 Safari/537.36","WebKit","Chrome","128.0.0.0","Windows","10.0","https://app.prolific.com/","en-US,en;q=0.9","66a0172986186ec228714d51","67949641171f97c04e14fb34","679511de6387b4fb6be31979","","189","","2","Intro Trial",""
"","","","","","html-button-response","43","144157","0.0-4.39-0.39-0.39","31","1","2025-01-25 16:31:45","af8d355d56820e421d246a7037deb6e6","104.218.199.22","Mozilla/5.0 (Windows NT 10.0; Win64; x64) AppleWebKit/537.36 (KHTML, like Gecko) Chrome/128.0.0.0 Safari/537.36","WebKit","Chrome","128.0.0.0","Windows","10.0","https://app.prolific.com/","en-US,en;q=0.9","66a0172986186ec228714d51","67949641171f97c04e14fb34","679511de6387b4fb6be31979","","1283","","1","Intro Trial",""
"","","","","","html-button-response","44","145135","0.0-4.40-0.40-0.40","31","1","2025-01-25 16:31:45","af8d355d56820e421d246a7037deb6e6","104.218.199.22","Mozilla/5.0 (Windows NT 10.0; Win64; x64) AppleWebKit/537.36 (KHTML, like Gecko) Chrome/128.0.0.0 Safari/537.36","WebKit","Chrome","128.0.0.0","Windows","10.0","https://app.prolific.com/","en-US,en;q=0.9","66a0172986186ec228714d51","67949641171f97c04e14fb34","679511de6387b4fb6be31979","","973","","1","Intro Trial",""
"","","","","","html-button-response","45","145394","0.0-4.41-0.41-0.41","31","1","2025-01-25 16:31:45","af8d355d56820e421d246a7037deb6e6","104.218.199.22","Mozilla/5.0 (Windows NT 10.0; Win64; x64) AppleWebKit/537.36 (KHTML, like Gecko) Chrome/128.0.0.0 Safari/537.36","WebKit","Chrome","128.0.0.0","Windows","10.0","https://app.prolific.com/","en-US,en;q=0.9","66a0172986186ec228714d51","67949641171f97c04e14fb34","679511de6387b4fb6be31979","","252","","1","Intro Trial",""
"","","","","","html-button-response","46","146275","0.0-4.42-0.42-0.42","31","1","2025-01-25 16:31:45","af8d355d56820e421d246a7037deb6e6","104.218.199.22","Mozilla/5.0 (Windows NT 10.0; Win64; x64) AppleWebKit/537.36 (KHTML, like Gecko) Chrome/128.0.0.0 Safari/537.36","WebKit","Chrome","128.0.0.0","Windows","10.0","https://app.prolific.com/","en-US,en;q=0.9","66a0172986186ec228714d51","67949641171f97c04e14fb34","679511de6387b4fb6be31979","","876","","1","Intro Trial",""
"","","","","","html-button-response","47","146499","0.0-4.43-0.43-0.43","31","1","2025-01-25 16:31:45","af8d355d56820e421d246a7037deb6e6","104.218.199.22","Mozilla/5.0 (Windows NT 10.0; Win64; x64) AppleWebKit/537.36 (KHTML, like Gecko) Chrome/128.0.0.0 Safari/537.36","WebKit","Chrome","128.0.0.0","Windows","10.0","https://app.prolific.com/","en-US,en;q=0.9","66a0172986186ec228714d51","67949641171f97c04e14fb34","679511de6387b4fb6be31979","","218","","1","Intro Trial",""
"","","","","","html-button-response","48","146961","0.0-4.44-0.44-0.44","31","1","2025-01-25 16:31:45","af8d355d56820e421d246a7037deb6e6","104.218.199.22","Mozilla/5.0 (Windows NT 10.0; Win64; x64) AppleWebKit/537.36 (KHTML, like Gecko) Chrome/128.0.0.0 Safari/537.36","WebKit","Chrome","128.0.0.0","Windows","10.0","https://app.prolific.com/","en-US,en;q=0.9","66a0172986186ec228714d51","67949641171f97c04e14fb34","679511de6387b4fb6be31979","","455","","1","Intro Trial",""
"","","","","","html-button-response","49","147744","0.0-4.45-0.45-0.45","31","1","2025-01-25 16:31:45","af8d355d56820e421d246a7037deb6e6","104.218.199.22","Mozilla/5.0 (Windows NT 10.0; Win64; x64) AppleWebKit/537.36 (KHTML, like Gecko) Chrome/128.0.0.0 Safari/537.36","WebKit","Chrome","128.0.0.0","Windows","10.0","https://app.prolific.com/","en-US,en;q=0.9","66a0172986186ec228714d51","67949641171f97c04e14fb34","679511de6387b4fb6be31979","","778","","4","Intro Trial",""
"","","","","","html-button-response","50","147969","0.0-4.46-0.46-0.46","31","1","2025-01-25 16:31:45","af8d355d56820e421d246a7037deb6e6","104.218.199.22","Mozilla/5.0 (Windows NT 10.0; Win64; x64) AppleWebKit/537.36 (KHTML, like Gecko) Chrome/128.0.0.0 Safari/537.36","WebKit","Chrome","128.0.0.0","Windows","10.0","https://app.prolific.com/","en-US,en;q=0.9","66a0172986186ec228714d51","67949641171f97c04e14fb34","679511de6387b4fb6be31979","","219","","4","Intro Trial",""
"","","","","","html-button-response","51","148507","0.0-4.47-0.47-0.47","31","1","2025-01-25 16:31:45","af8d355d56820e421d246a7037deb6e6","104.218.199.22","Mozilla/5.0 (Windows NT 10.0; Win64; x64) AppleWebKit/537.36 (KHTML, like Gecko) Chrome/128.0.0.0 Safari/537.36","WebKit","Chrome","128.0.0.0","Windows","10.0","https://app.prolific.com/","en-US,en;q=0.9","66a0172986186ec228714d51","67949641171f97c04e14fb34","679511de6387b4fb6be31979","","532","","4","Intro Trial",""
"","","","","","html-button-response","52","185924","0.0-4.48-0.48-0.48","31","1","2025-01-25 16:31:45","af8d355d56820e421d246a7037deb6e6","104.218.199.22","Mozilla/5.0 (Windows NT 10.0; Win64; x64) AppleWebKit/537.36 (KHTML, like Gecko) Chrome/128.0.0.0 Safari/537.36","WebKit","Chrome","128.0.0.0","Windows","10.0","https://app.prolific.com/","en-US,en;q=0.9","66a0172986186ec228714d51","67949641171f97c04e14fb34","679511de6387b4fb6be31979","","37411","","4","Intro Trial",""
"","","","","","html-button-response","53","188724","0.0-4.49-0.49-0.49","31","1","2025-01-25 16:31:45","af8d355d56820e421d246a7037deb6e6","104.218.199.22","Mozilla/5.0 (Windows NT 10.0; Win64; x64) AppleWebKit/537.36 (KHTML, like Gecko) Chrome/128.0.0.0 Safari/537.36","WebKit","Chrome","128.0.0.0","Windows","10.0","https://app.prolific.com/","en-US,en;q=0.9","66a0172986186ec228714d51","67949641171f97c04e14fb34","679511de6387b4fb6be31979","","2793","","1","Intro Trial",""
"","","","","","html-button-response","54","189011","0.0-4.50-0.50-0.50","31","1","2025-01-25 16:31:45","af8d355d56820e421d246a7037deb6e6","104.218.199.22","Mozilla/5.0 (Windows NT 10.0; Win64; x64) AppleWebKit/537.36 (KHTML, like Gecko) Chrome/128.0.0.0 Safari/537.36","WebKit","Chrome","128.0.0.0","Windows","10.0","https://app.prolific.com/","en-US,en;q=0.9","66a0172986186ec228714d51","67949641171f97c04e14fb34","679511de6387b4fb6be31979","","281","","1","Intro Trial",""
"","","","","","html-button-response","55","189626","0.0-4.51-0.51-0.51","31","1","2025-01-25 16:31:45","af8d355d56820e421d246a7037deb6e6","104.218.199.22","Mozilla/5.0 (Windows NT 10.0; Win64; x64) AppleWebKit/537.36 (KHTML, like Gecko) Chrome/128.0.0.0 Safari/537.36","WebKit","Chrome","128.0.0.0","Windows","10.0","https://app.prolific.com/","en-US,en;q=0.9","66a0172986186ec228714d51","67949641171f97c04e14fb34","679511de6387b4fb6be31979","","610","","1","Intro Trial",""
"","","","","","html-button-response","56","190670","0.0-4.52-0.52-0.52","31","1","2025-01-25 16:31:45","af8d355d56820e421d246a7037deb6e6","104.218.199.22","Mozilla/5.0 (Windows NT 10.0; Win64; x64) AppleWebKit/537.36 (KHTML, like Gecko) Chrome/128.0.0.0 Safari/537.36","WebKit","Chrome","128.0.0.0","Windows","10.0","https://app.prolific.com/","en-US,en;q=0.9","66a0172986186ec228714d51","67949641171f97c04e14fb34","679511de6387b4fb6be31979","","1037","","4","Intro Trial",""
"","","","","","html-button-response","57","190884","0.0-4.53-0.53-0.53","31","1","2025-01-25 16:31:45","af8d355d56820e421d246a7037deb6e6","104.218.199.22","Mozilla/5.0 (Windows NT 10.0; Win64; x64) AppleWebKit/537.36 (KHTML, like Gecko) Chrome/128.0.0.0 Safari/537.36","WebKit","Chrome","128.0.0.0","Windows","10.0","https://app.prolific.com/","en-US,en;q=0.9","66a0172986186ec228714d51","67949641171f97c04e14fb34","679511de6387b4fb6be31979","","208","","4","Intro Trial",""
"","","","","","html-button-response","58","192044","0.0-4.54-0.54-0.54","31","1","2025-01-25 16:31:45","af8d355d56820e421d246a7037deb6e6","104.218.199.22","Mozilla/5.0 (Windows NT 10.0; Win64; x64) AppleWebKit/537.36 (KHTML, like Gecko) Chrome/128.0.0.0 Safari/537.36","WebKit","Chrome","128.0.0.0","Windows","10.0","https://app.prolific.com/","en-US,en;q=0.9","66a0172986186ec228714d51","67949641171f97c04e14fb34","679511de6387b4fb6be31979","","1154","","1","Intro Trial",""
"","","","","","html-button-response","59","193157","0.0-4.55-0.55-0.55","31","1","2025-01-25 16:31:45","af8d355d56820e421d246a7037deb6e6","104.218.199.22","Mozilla/5.0 (Windows NT 10.0; Win64; x64) AppleWebKit/537.36 (KHTML, like Gecko) Chrome/128.0.0.0 Safari/537.36","WebKit","Chrome","128.0.0.0","Windows","10.0","https://app.prolific.com/","en-US,en;q=0.9","66a0172986186ec228714d51","67949641171f97c04e14fb34","679511de6387b4fb6be31979","","1106","","4","Intro Trial",""
"","","","","","html-button-response","60","197365","0.0-4.56-0.56-0.56","31","1","2025-01-25 16:31:45","af8d355d56820e421d246a7037deb6e6","104.218.199.22","Mozilla/5.0 (Windows NT 10.0; Win64; x64) AppleWebKit/537.36 (KHTML, like Gecko) Chrome/128.0.0.0 Safari/537.36","WebKit","Chrome","128.0.0.0","Windows","10.0","https://app.prolific.com/","en-US,en;q=0.9","66a0172986186ec228714d51","67949641171f97c04e14fb34","679511de6387b4fb6be31979","","4202","","4","Intro Trial",""
"","","","","","html-button-response","61","199051","0.0-4.57-0.57-0.57","31","1","2025-01-25 16:31:45","af8d355d56820e421d246a7037deb6e6","104.218.199.22","Mozilla/5.0 (Windows NT 10.0; Win64; x64) AppleWebKit/537.36 (KHTML, like Gecko) Chrome/128.0.0.0 Safari/537.36","WebKit","Chrome","128.0.0.0","Windows","10.0","https://app.prolific.com/","en-US,en;q=0.9","66a0172986186ec228714d51","67949641171f97c04e14fb34","679511de6387b4fb6be31979","","1680","","1","Intro Trial",""
"","","","","","html-button-response","62","199323","0.0-4.58-0.58-0.58","31","1","2025-01-25 16:31:45","af8d355d56820e421d246a7037deb6e6","104.218.199.22","Mozilla/5.0 (Windows NT 10.0; Win64; x64) AppleWebKit/537.36 (KHTML, like Gecko) Chrome/128.0.0.0 Safari/537.36","WebKit","Chrome","128.0.0.0","Windows","10.0","https://app.prolific.com/","en-US,en;q=0.9","66a0172986186ec228714d51","67949641171f97c04e14fb34","679511de6387b4fb6be31979","","265","","1","Intro Trial",""
"","","","","","html-button-response","63","209613","0.0-4.59-0.59-0.59","31","1","2025-01-25 16:31:45","af8d355d56820e421d246a7037deb6e6","104.218.199.22","Mozilla/5.0 (Windows NT 10.0; Win64; x64) AppleWebKit/537.36 (KHTML, like Gecko) Chrome/128.0.0.0 Safari/537.36","WebKit","Chrome","128.0.0.0","Windows","10.0","https://app.prolific.com/","en-US,en;q=0.9","66a0172986186ec228714d51","67949641171f97c04e14fb34","679511de6387b4fb6be31979","","10283","","4","Intro Trial",""
"","","","","","html-button-response","64","210181","0.0-4.60-0.60-0.60","31","1","2025-01-25 16:31:45","af8d355d56820e421d246a7037deb6e6","104.218.199.22","Mozilla/5.0 (Windows NT 10.0; Win64; x64) AppleWebKit/537.36 (KHTML, like Gecko) Chrome/128.0.0.0 Safari/537.36","WebKit","Chrome","128.0.0.0","Windows","10.0","https://app.prolific.com/","en-US,en;q=0.9","66a0172986186ec228714d51","67949641171f97c04e14fb34","679511de6387b4fb6be31979","","562","","4","Intro Trial",""
"","","","","","html-button-response","65","211373","0.0-4.61-0.61-0.61","31","1","2025-01-25 16:31:45","af8d355d56820e421d246a7037deb6e6","104.218.199.22","Mozilla/5.0 (Windows NT 10.0; Win64; x64) AppleWebKit/537.36 (KHTML, like Gecko) Chrome/128.0.0.0 Safari/537.36","WebKit","Chrome","128.0.0.0","Windows","10.0","https://app.prolific.com/","en-US,en;q=0.9","66a0172986186ec228714d51","67949641171f97c04e14fb34","679511de6387b4fb6be31979","","1186","","1","Intro Trial",""
"","","","","","html-button-response","66","211630","0.0-4.62-0.62-0.62","31","1","2025-01-25 16:31:45","af8d355d56820e421d246a7037deb6e6","104.218.199.22","Mozilla/5.0 (Windows NT 10.0; Win64; x64) AppleWebKit/537.36 (KHTML, like Gecko) Chrome/128.0.0.0 Safari/537.36","WebKit","Chrome","128.0.0.0","Windows","10.0","https://app.prolific.com/","en-US,en;q=0.9","66a0172986186ec228714d51","67949641171f97c04e14fb34","679511de6387b4fb6be31979","","249","","1","Intro Trial",""
"","","","","","html-button-response","67","212501","0.0-4.63-0.63-0.63","31","1","2025-01-25 16:31:45","af8d355d56820e421d246a7037deb6e6","104.218.199.22","Mozilla/5.0 (Windows NT 10.0; Win64; x64) AppleWebKit/537.36 (KHTML, like Gecko) Chrome/128.0.0.0 Safari/537.36","WebKit","Chrome","128.0.0.0","Windows","10.0","https://app.prolific.com/","en-US,en;q=0.9","66a0172986186ec228714d51","67949641171f97c04e14fb34","679511de6387b4fb6be31979","","866","","0","Intro Trial",""
"","","","","","html-button-response","68","213495","0.0-4.64-0.64-0.64","31","1","2025-01-25 16:31:45","af8d355d56820e421d246a7037deb6e6","104.218.199.22","Mozilla/5.0 (Windows NT 10.0; Win64; x64) AppleWebKit/537.36 (KHTML, like Gecko) Chrome/128.0.0.0 Safari/537.36","WebKit","Chrome","128.0.0.0","Windows","10.0","https://app.prolific.com/","en-US,en;q=0.9","66a0172986186ec228714d51","67949641171f97c04e14fb34","679511de6387b4fb6be31979","","989","","4","Intro Trial",""
"","","","","","html-button-response","69","213742","0.0-4.65-0.65-0.65","31","1","2025-01-25 16:31:45","af8d355d56820e421d246a7037deb6e6","104.218.199.22","Mozilla/5.0 (Windows NT 10.0; Win64; x64) AppleWebKit/537.36 (KHTML, like Gecko) Chrome/128.0.0.0 Safari/537.36","WebKit","Chrome","128.0.0.0","Windows","10.0","https://app.prolific.com/","en-US,en;q=0.9","66a0172986186ec228714d51","67949641171f97c04e14fb34","679511de6387b4fb6be31979","","241","","4","Intro Trial",""
"","","","","","html-button-response","70","214266","0.0-4.66-0.66-0.66","31","1","2025-01-25 16:31:45","af8d355d56820e421d246a7037deb6e6","104.218.199.22","Mozilla/5.0 (Windows NT 10.0; Win64; x64) AppleWebKit/537.36 (KHTML, like Gecko) Chrome/128.0.0.0 Safari/537.36","WebKit","Chrome","128.0.0.0","Windows","10.0","https://app.prolific.com/","en-US,en;q=0.9","66a0172986186ec228714d51","67949641171f97c04e14fb34","679511de6387b4fb6be31979","","518","","4","Intro Trial",""
"","","","","","html-button-response","71","215265","0.0-4.67-0.67-0.67","31","1","2025-01-25 16:31:45","af8d355d56820e421d246a7037deb6e6","104.218.199.22","Mozilla/5.0 (Windows NT 10.0; Win64; x64) AppleWebKit/537.36 (KHTML, like Gecko) Chrome/128.0.0.0 Safari/537.36","WebKit","Chrome","128.0.0.0","Windows","10.0","https://app.prolific.com/","en-US,en;q=0.9","66a0172986186ec228714d51","67949641171f97c04e14fb34","679511de6387b4fb6be31979","","993","","0","Intro Trial",""
"","","","","","html-button-response","72","215538","0.0-4.68-0.68-0.68","31","1","2025-01-25 16:31:45","af8d355d56820e421d246a7037deb6e6","104.218.199.22","Mozilla/5.0 (Windows NT 10.0; Win64; x64) AppleWebKit/537.36 (KHTML, like Gecko) Chrome/128.0.0.0 Safari/537.36","WebKit","Chrome","128.0.0.0","Windows","10.0","https://app.prolific.com/","en-US,en;q=0.9","66a0172986186ec228714d51","67949641171f97c04e14fb34","679511de6387b4fb6be31979","","269","","0","Intro Trial",""
"","","","","","html-button-response","73","216370","0.0-4.69-0.69-0.69","31","1","2025-01-25 16:31:45","af8d355d56820e421d246a7037deb6e6","104.218.199.22","Mozilla/5.0 (Windows NT 10.0; Win64; x64) AppleWebKit/537.36 (KHTML, like Gecko) Chrome/128.0.0.0 Safari/537.36","WebKit","Chrome","128.0.0.0","Windows","10.0","https://app.prolific.com/","en-US,en;q=0.9","66a0172986186ec228714d51","67949641171f97c04e14fb34","679511de6387b4fb6be31979","","824","","0","Intro Trial",""
"","","","","","html-button-response","74","216597","0.0-4.70-0.70-0.70","31","1","2025-01-25 16:31:45","af8d355d56820e421d246a7037deb6e6","104.218.199.22","Mozilla/5.0 (Windows NT 10.0; Win64; x64) AppleWebKit/537.36 (KHTML, like Gecko) Chrome/128.0.0.0 Safari/537.36","WebKit","Chrome","128.0.0.0","Windows","10.0","https://app.prolific.com/","en-US,en;q=0.9","66a0172986186ec228714d51","67949641171f97c04e14fb34","679511de6387b4fb6be31979","","221","","0","Intro Trial",""
"","","","","","html-button-response","75","216812","0.0-4.71-0.71-0.71","31","1","2025-01-25 16:31:45","af8d355d56820e421d246a7037deb6e6","104.218.199.22","Mozilla/5.0 (Windows NT 10.0; Win64; x64) AppleWebKit/537.36 (KHTML, like Gecko) Chrome/128.0.0.0 Safari/537.36","WebKit","Chrome","128.0.0.0","Windows","10.0","https://app.prolific.com/","en-US,en;q=0.9","66a0172986186ec228714d51","67949641171f97c04e14fb34","679511de6387b4fb6be31979","","211","","0","Intro Trial",""
"","","","","","html-button-response","76","217407","0.0-4.72-0.72-0.72","31","1","2025-01-25 16:31:45","af8d355d56820e421d246a7037deb6e6","104.218.199.22","Mozilla/5.0 (Windows NT 10.0; Win64; x64) AppleWebKit/537.36 (KHTML, like Gecko) Chrome/128.0.0.0 Safari/537.36","WebKit","Chrome","128.0.0.0","Windows","10.0","https://app.prolific.com/","en-US,en;q=0.9","66a0172986186ec228714d51","67949641171f97c04e14fb34","679511de6387b4fb6be31979","","587","","0","Intro Trial",""
"","","","","","html-button-response","77","218486","0.0-4.73-0.73-0.73","31","1","2025-01-25 16:31:45","af8d355d56820e421d246a7037deb6e6","104.218.199.22","Mozilla/5.0 (Windows NT 10.0; Win64; x64) AppleWebKit/537.36 (KHTML, like Gecko) Chrome/128.0.0.0 Safari/537.36","WebKit","Chrome","128.0.0.0","Windows","10.0","https://app.prolific.com/","en-US,en;q=0.9","66a0172986186ec228714d51","67949641171f97c04e14fb34","679511de6387b4fb6be31979","","1072","","4","Intro Trial",""
"","","","","","html-button-response","78","218700","0.0-4.74-0.74-0.74","31","1","2025-01-25 16:31:45","af8d355d56820e421d246a7037deb6e6","104.218.199.22","Mozilla/5.0 (Windows NT 10.0; Win64; x64) AppleWebKit/537.36 (KHTML, like Gecko) Chrome/128.0.0.0 Safari/537.36","WebKit","Chrome","128.0.0.0","Windows","10.0","https://app.prolific.com/","en-US,en;q=0.9","66a0172986186ec228714d51","67949641171f97c04e14fb34","679511de6387b4fb6be31979","","207","","4","Intro Trial",""
"","","","","","html-button-response","79","219754","0.0-4.75-0.75-0.75","31","1","2025-01-25 16:31:45","af8d355d56820e421d246a7037deb6e6","104.218.199.22","Mozilla/5.0 (Windows NT 10.0; Win64; x64) AppleWebKit/537.36 (KHTML, like Gecko) Chrome/128.0.0.0 Safari/537.36","WebKit","Chrome","128.0.0.0","Windows","10.0","https://app.prolific.com/","en-US,en;q=0.9","66a0172986186ec228714d51","67949641171f97c04e14fb34","679511de6387b4fb6be31979","","1046","","1","Intro Trial",""
"","","","","","html-button-response","80","219968","0.0-4.76-0.76-0.76","31","1","2025-01-25 16:31:45","af8d355d56820e421d246a7037deb6e6","104.218.199.22","Mozilla/5.0 (Windows NT 10.0; Win64; x64) AppleWebKit/537.36 (KHTML, like Gecko) Chrome/128.0.0.0 Safari/537.36","WebKit","Chrome","128.0.0.0","Windows","10.0","https://app.prolific.com/","en-US,en;q=0.9","66a0172986186ec228714d51","67949641171f97c04e14fb34","679511de6387b4fb6be31979","","207","","1","Intro Trial",""
"","","","","","html-button-response","81","220782","0.0-4.77-0.77-0.77","31","1","2025-01-25 16:31:45","af8d355d56820e421d246a7037deb6e6","104.218.199.22","Mozilla/5.0 (Windows NT 10.0; Win64; x64) AppleWebKit/537.36 (KHTML, like Gecko) Chrome/128.0.0.0 Safari/537.36","WebKit","Chrome","128.0.0.0","Windows","10.0","https://app.prolific.com/","en-US,en;q=0.9","66a0172986186ec228714d51","67949641171f97c04e14fb34","679511de6387b4fb6be31979","","807","","3","Intro Trial",""
"","","","","","html-button-response","82","220996","0.0-4.78-0.78-0.78","31","1","2025-01-25 16:31:45","af8d355d56820e421d246a7037deb6e6","104.218.199.22","Mozilla/5.0 (Windows NT 10.0; Win64; x64) AppleWebKit/537.36 (KHTML, like Gecko) Chrome/128.0.0.0 Safari/537.36","WebKit","Chrome","128.0.0.0","Windows","10.0","https://app.prolific.com/","en-US,en;q=0.9","66a0172986186ec228714d51","67949641171f97c04e14fb34","679511de6387b4fb6be31979","","206","","3","Intro Trial",""
"","","","","","html-button-response","83","221696","0.0-4.79-0.79-0.79","31","1","2025-01-25 16:31:45","af8d355d56820e421d246a7037deb6e6","104.218.199.22","Mozilla/5.0 (Windows NT 10.0; Win64; x64) AppleWebKit/537.36 (KHTML, like Gecko) Chrome/128.0.0.0 Safari/537.36","WebKit","Chrome","128.0.0.0","Windows","10.0","https://app.prolific.com/","en-US,en;q=0.9","66a0172986186ec228714d51","67949641171f97c04e14fb34","679511de6387b4fb6be31979","","690","","2","Intro Trial",""
"","","","","","html-button-response","84","221910","0.0-4.80-0.80-0.80","31","1","2025-01-25 16:31:45","af8d355d56820e421d246a7037deb6e6","104.218.199.22","Mozilla/5.0 (Windows NT 10.0; Win64; x64) AppleWebKit/537.36 (KHTML, like Gecko) Chrome/128.0.0.0 Safari/537.36","WebKit","Chrome","128.0.0.0","Windows","10.0","https://app.prolific.com/","en-US,en;q=0.9","66a0172986186ec228714d51","67949641171f97c04e14fb34","679511de6387b4fb6be31979","","206","","2","Intro Trial",""
"","","","","","html-button-response","85","222802","0.0-4.81-0.81-0.81","31","1","2025-01-25 16:31:45","af8d355d56820e421d246a7037deb6e6","104.218.199.22","Mozilla/5.0 (Windows NT 10.0; Win64; x64) AppleWebKit/537.36 (KHTML, like Gecko) Chrome/128.0.0.0 Safari/537.36","WebKit","Chrome","128.0.0.0","Windows","10.0","https://app.prolific.com/","en-US,en;q=0.9","66a0172986186ec228714d51","67949641171f97c04e14fb34","679511de6387b4fb6be31979","","887","","4","Intro Trial",""
"","","","","","html-button-response","86","223423","0.0-4.82-0.82-0.82","31","1","2025-01-25 16:31:45","af8d355d56820e421d246a7037deb6e6","104.218.199.22","Mozilla/5.0 (Windows NT 10.0; Win64; x64) AppleWebKit/537.36 (KHTML, like Gecko) Chrome/128.0.0.0 Safari/537.36","WebKit","Chrome","128.0.0.0","Windows","10.0","https://app.prolific.com/","en-US,en;q=0.9","66a0172986186ec228714d51","67949641171f97c04e14fb34","679511de6387b4fb6be31979","","613","","4","Intro Trial",""
"","","","","","html-button-response","87","223852","0.0-4.83-0.83-0.83","31","1","2025-01-25 16:31:45","af8d355d56820e421d246a7037deb6e6","104.218.199.22","Mozilla/5.0 (Windows NT 10.0; Win64; x64) AppleWebKit/537.36 (KHTML, like Gecko) Chrome/128.0.0.0 Safari/537.36","WebKit","Chrome","128.0.0.0","Windows","10.0","https://app.prolific.com/","en-US,en;q=0.9","66a0172986186ec228714d51","67949641171f97c04e14fb34","679511de6387b4fb6be31979","","420","","4","Intro Trial",""
"","","","","","html-button-response","88","224504","0.0-4.84-0.84-0.84","31","1","2025-01-25 16:31:45","af8d355d56820e421d246a7037deb6e6","104.218.199.22","Mozilla/5.0 (Windows NT 10.0; Win64; x64) AppleWebKit/537.36 (KHTML, like Gecko) Chrome/128.0.0.0 Safari/537.36","WebKit","Chrome","128.0.0.0","Windows","10.0","https://app.prolific.com/","en-US,en;q=0.9","66a0172986186ec228714d51","67949641171f97c04e14fb34","679511de6387b4fb6be31979","","644","","4","Intro Trial",""
"","","","","","html-button-response","89","225614","0.0-4.85-0.85-0.85","31","1","2025-01-25 16:31:45","af8d355d56820e421d246a7037deb6e6","104.218.199.22","Mozilla/5.0 (Windows NT 10.0; Win64; x64) AppleWebKit/537.36 (KHTML, like Gecko) Chrome/128.0.0.0 Safari/537.36","WebKit","Chrome","128.0.0.0","Windows","10.0","https://app.prolific.com/","en-US,en;q=0.9","66a0172986186ec228714d51","67949641171f97c04e14fb34","679511de6387b4fb6be31979","","1102","","2","Intro Trial",""
"","","","","","html-button-response","90","229369","0.0-4.86-0.86-0.86","31","1","2025-01-25 16:31:45","af8d355d56820e421d246a7037deb6e6","104.218.199.22","Mozilla/5.0 (Windows NT 10.0; Win64; x64) AppleWebKit/537.36 (KHTML, like Gecko) Chrome/128.0.0.0 Safari/537.36","WebKit","Chrome","128.0.0.0","Windows","10.0","https://app.prolific.com/","en-US,en;q=0.9","66a0172986186ec228714d51","67949641171f97c04e14fb34","679511de6387b4fb6be31979","","3749","","5","Intro Trial",""
"","","","","","html-keyboard-response","91","252603","0.0-5.0","31","1","2025-01-25 16:31:45","af8d355d56820e421d246a7037deb6e6","104.218.199.22","Mozilla/5.0 (Windows NT 10.0; Win64; x64) AppleWebKit/537.36 (KHTML, like Gecko) Chrome/128.0.0.0 Safari/537.36","WebKit","Chrome","128.0.0.0","Windows","10.0","https://app.prolific.com/","en-US,en;q=0.9","66a0172986186ec228714d51","67949641171f97c04e14fb34","679511de6387b4fb6be31979","","23227","[""You sorted incorrectly by using the balance 29 times. <br><br> <img src='G_5.jpg' height='90'><img src='G_2.jpg' height='90'><img src='G_3.jpg' height='90'><img src='G_4.jpg' height='90'><img src='G_1.jpg' height='90'><br><br> Your final order is 1,2,3,5,4<br><br><br>Omgne Sort in this game will allow you to sort correctly by using the balance 8 times. Press Enter to learn it!""]","enter","",""
"","","","","","html-keyboard-response","92","256162","0.0-6.0","31","1","2025-01-25 16:31:45","af8d355d56820e421d246a7037deb6e6","104.218.199.22","Mozilla/5.0 (Windows NT 10.0; Win64; x64) AppleWebKit/537.36 (KHTML, like Gecko) Chrome/128.0.0.0 Safari/537.36","WebKit","Chrome","128.0.0.0","Windows","10.0","https://app.prolific.com/","en-US,en;q=0.9","66a0172986186ec228714d51","67949641171f97c04e14fb34","679511de6387b4fb6be31979","","3556","<p>Welcome to the learning phase! <br><br> You will learn by six examples. The following learning trials will not be used to calculate your performance. <br><br> Press Enter to continue.<p/>","enter","",""
"","","","","","html-keyboard-response","93","258847","0.0-7.0","31","1","2025-01-25 16:31:45","af8d355d56820e421d246a7037deb6e6","104.218.199.22","Mozilla/5.0 (Windows NT 10.0; Win64; x64) AppleWebKit/537.36 (KHTML, like Gecko) Chrome/128.0.0.0 Safari/537.36","WebKit","Chrome","128.0.0.0","Windows","10.0","https://app.prolific.com/","en-US,en;q=0.9","66a0172986186ec228714d51","67949641171f97c04e14fb34","679511de6387b4fb6be31979","","2684","[""Example 1<br><br>You will watch Omnge Sort in action. Try to identify any patterns in the comparisons made by this method. <br><br>Press Enter to continue.""]","enter","",""
"","","","","","html-keyboard-response","94","259352","0.0-8.0","31","1","2025-01-25 16:31:45","af8d355d56820e421d246a7037deb6e6","104.218.199.22","Mozilla/5.0 (Windows NT 10.0; Win64; x64) AppleWebKit/537.36 (KHTML, like Gecko) Chrome/128.0.0.0 Safari/537.36","WebKit","Chrome","128.0.0.0","Windows","10.0","https://app.prolific.com/","en-US,en;q=0.9","66a0172986186ec228714d51","67949641171f97c04e14fb34","679511de6387b4fb6be31979","","null","<img id='selected' src='G_9.jpg' height='90'> <img src='G_7.jpg' height='90'> <img src='G_3.jpg' height='90'> <img src='G_1.jpg' height='90'> <img src='G_5.jpg' height='90'>","null","Animation0",""
"","","","","","html-keyboard-response","95","259860","0.0-9.0","31","1","2025-01-25 16:31:45","af8d355d56820e421d246a7037deb6e6","104.218.199.22","Mozilla/5.0 (Windows NT 10.0; Win64; x64) AppleWebKit/537.36 (KHTML, like Gecko) Chrome/128.0.0.0 Safari/537.36","WebKit","Chrome","128.0.0.0","Windows","10.0","https://app.prolific.com/","en-US,en;q=0.9","66a0172986186ec228714d51","67949641171f97c04e14fb34","679511de6387b4fb6be31979","","null","<img id='selected' src='G_9.jpg' height='90'> <img id='selected' src='G_7.jpg' height='90'> <img src='G_3.jpg' height='90'> <img src='G_1.jpg' height='90'> <img src='G_5.jpg' height='90'>","null","Animation0",""
"","","","","","html-keyboard-response","96","260363","0.0-10.0","31","1","2025-01-25 16:31:45","af8d355d56820e421d246a7037deb6e6","104.218.199.22","Mozilla/5.0 (Windows NT 10.0; Win64; x64) AppleWebKit/537.36 (KHTML, like Gecko) Chrome/128.0.0.0 Safari/537.36","WebKit","Chrome","128.0.0.0","Windows","10.0","https://app.prolific.com/","en-US,en;q=0.9","66a0172986186ec228714d51","67949641171f97c04e14fb34","679511de6387b4fb6be31979","","null","<img id='swapped' src='G_7.jpg' height='90'> <img id='swapped' src='G_9.jpg' height='90'> <img src='G_3.jpg' height='90'> <img src='G_1.jpg' height='90'> <img src='G_5.jpg' height='90'>","null","Animation0",""
"","","","","","html-keyboard-response","97","260672","0.0-11.0","31","1","2025-01-25 16:31:45","af8d355d56820e421d246a7037deb6e6","104.218.199.22","Mozilla/5.0 (Windows NT 10.0; Win64; x64) AppleWebKit/537.36 (KHTML, like Gecko) Chrome/128.0.0.0 Safari/537.36","WebKit","Chrome","128.0.0.0","Windows","10.0","https://app.prolific.com/","en-US,en;q=0.9","66a0172986186ec228714d51","67949641171f97c04e14fb34","679511de6387b4fb6be31979","","null","<img  src='G_7.jpg' height='90'> <img  src='G_9.jpg' height='90'> <img src='G_3.jpg' height='90'> <img src='G_1.jpg' height='90'> <img src='G_5.jpg' height='90'>","null","Animation0",""
"","","","","","html-keyboard-response","98","261180","0.0-12.0","31","1","2025-01-25 16:31:45","af8d355d56820e421d246a7037deb6e6","104.218.199.22","Mozilla/5.0 (Windows NT 10.0; Win64; x64) AppleWebKit/537.36 (KHTML, like Gecko) Chrome/128.0.0.0 Safari/537.36","WebKit","Chrome","128.0.0.0","Windows","10.0","https://app.prolific.com/","en-US,en;q=0.9","66a0172986186ec228714d51","67949641171f97c04e14fb34","679511de6387b4fb6be31979","","null","<img  src='G_7.jpg' height='90'> <img id='selected'  src='G_9.jpg' height='90'> <img src='G_3.jpg' height='90'> <img src='G_1.jpg' height='90'> <img src='G_5.jpg' height='90'>","null","Animation0",""
"","","","","","html-keyboard-response","99","261687","0.0-13.0","31","1","2025-01-25 16:31:45","af8d355d56820e421d246a7037deb6e6","104.218.199.22","Mozilla/5.0 (Windows NT 10.0; Win64; x64) AppleWebKit/537.36 (KHTML, like Gecko) Chrome/128.0.0.0 Safari/537.36","WebKit","Chrome","128.0.0.0","Windows","10.0","https://app.prolific.com/","en-US,en;q=0.9","66a0172986186ec228714d51","67949641171f97c04e14fb34","679511de6387b4fb6be31979","","null","<img  src='G_7.jpg' height='90'> <img id='selected'  src='G_9.jpg' height='90'> <img id='selected' src='G_3.jpg' height='90'> <img src='G_1.jpg' height='90'> <img src='G_5.jpg' height='90'>","null","Animation0",""
"","","","","","html-keyboard-response","100","262195","0.0-14.0","31","1","2025-01-25 16:31:45","af8d355d56820e421d246a7037deb6e6","104.218.199.22","Mozilla/5.0 (Windows NT 10.0; Win64; x64) AppleWebKit/537.36 (KHTML, like Gecko) Chrome/128.0.0.0 Safari/537.36","WebKit","Chrome","128.0.0.0","Windows","10.0","https://app.prolific.com/","en-US,en;q=0.9","66a0172986186ec228714d51","67949641171f97c04e14fb34","679511de6387b4fb6be31979","","null","<img  src='G_7.jpg' height='90'> <img id='selected'  src='G_9.jpg' height='90'> <img id='selected' src='G_3.jpg' height='90'> <img src='G_1.jpg' height='90'> <img src='G_5.jpg' height='90'>","null","Animation0",""
"","","","","","html-keyboard-response","101","262504","0.0-15.0","31","1","2025-01-25 16:31:45","af8d355d56820e421d246a7037deb6e6","104.218.199.22","Mozilla/5.0 (Windows NT 10.0; Win64; x64) AppleWebKit/537.36 (KHTML, like Gecko) Chrome/128.0.0.0 Safari/537.36","WebKit","Chrome","128.0.0.0","Windows","10.0","https://app.prolific.com/","en-US,en;q=0.9","66a0172986186ec228714d51","67949641171f97c04e14fb34","679511de6387b4fb6be31979","","null","<img  src='G_7.jpg' height='90'> <img   src='G_9.jpg' height='90'> <img  src='G_3.jpg' height='90'> <img src='G_1.jpg' height='90'> <img src='G_5.jpg' height='90'>","null","Animation0",""
"","","","","","html-keyboard-response","102","263013","0.0-16.0","31","1","2025-01-25 16:31:45","af8d355d56820e421d246a7037deb6e6","104.218.199.22","Mozilla/5.0 (Windows NT 10.0; Win64; x64) AppleWebKit/537.36 (KHTML, like Gecko) Chrome/128.0.0.0 Safari/537.36","WebKit","Chrome","128.0.0.0","Windows","10.0","https://app.prolific.com/","en-US,en;q=0.9","66a0172986186ec228714d51","67949641171f97c04e14fb34","679511de6387b4fb6be31979","","null","<img  src='G_7.jpg' height='90'> <img   src='G_9.jpg' height='90'> <img id='selected'  src='G_3.jpg' height='90'> <img src='G_1.jpg' height='90'> <img src='G_5.jpg' height='90'>","null","Animation0",""
"","","","","","html-keyboard-response","103","263521","0.0-17.0","31","1","2025-01-25 16:31:45","af8d355d56820e421d246a7037deb6e6","104.218.199.22","Mozilla/5.0 (Windows NT 10.0; Win64; x64) AppleWebKit/537.36 (KHTML, like Gecko) Chrome/128.0.0.0 Safari/537.36","WebKit","Chrome","128.0.0.0","Windows","10.0","https://app.prolific.com/","en-US,en;q=0.9","66a0172986186ec228714d51","67949641171f97c04e14fb34","679511de6387b4fb6be31979","","null","<img  src='G_7.jpg' height='90'> <img   src='G_9.jpg' height='90'> <img id='selected'  src='G_3.jpg' height='90'> <img id='selected' src='G_1.jpg' height='90'> <img src='G_5.jpg' height='90'>","null","Animation0",""
"","","","","","html-keyboard-response","104","264030","0.0-18.0","31","1","2025-01-25 16:31:45","af8d355d56820e421d246a7037deb6e6","104.218.199.22","Mozilla/5.0 (Windows NT 10.0; Win64; x64) AppleWebKit/537.36 (KHTML, like Gecko) Chrome/128.0.0.0 Safari/537.36","WebKit","Chrome","128.0.0.0","Windows","10.0","https://app.prolific.com/","en-US,en;q=0.9","66a0172986186ec228714d51","67949641171f97c04e14fb34","679511de6387b4fb6be31979","","null","<img  src='G_7.jpg' height='90'> <img   src='G_9.jpg' height='90'> <img id='selected'  src='G_3.jpg' height='90'> <img id='selected' src='G_1.jpg' height='90'> <img src='G_5.jpg' height='90'>","null","Animation0",""
"","","","","","html-keyboard-response","105","264335","0.0-19.0","31","1","2025-01-25 16:31:45","af8d355d56820e421d246a7037deb6e6","104.218.199.22","Mozilla/5.0 (Windows NT 10.0; Win64; x64) AppleWebKit/537.36 (KHTML, like Gecko) Chrome/128.0.0.0 Safari/537.36","WebKit","Chrome","128.0.0.0","Windows","10.0","https://app.prolific.com/","en-US,en;q=0.9","66a0172986186ec228714d51","67949641171f97c04e14fb34","679511de6387b4fb6be31979","","null","<img  src='G_7.jpg' height='90'> <img   src='G_9.jpg' height='90'> <img   src='G_3.jpg' height='90'> <img  src='G_1.jpg' height='90'> <img src='G_5.jpg' height='90'>","null","Animation0",""
"","","","","","html-keyboard-response","106","264843","0.0-20.0","31","1","2025-01-25 16:31:45","af8d355d56820e421d246a7037deb6e6","104.218.199.22","Mozilla/5.0 (Windows NT 10.0; Win64; x64) AppleWebKit/537.36 (KHTML, like Gecko) Chrome/128.0.0.0 Safari/537.36","WebKit","Chrome","128.0.0.0","Windows","10.0","https://app.prolific.com/","en-US,en;q=0.9","66a0172986186ec228714d51","67949641171f97c04e14fb34","679511de6387b4fb6be31979","","null","<img  src='G_7.jpg' height='90'> <img   src='G_9.jpg' height='90'> <img   src='G_3.jpg' height='90'> <img id='selected'  src='G_1.jpg' height='90'> <img src='G_5.jpg' height='90'>","null","Animation0",""
"","","","","","html-keyboard-response","107","265351","0.0-21.0","31","1","2025-01-25 16:31:45","af8d355d56820e421d246a7037deb6e6","104.218.199.22","Mozilla/5.0 (Windows NT 10.0; Win64; x64) AppleWebKit/537.36 (KHTML, like Gecko) Chrome/128.0.0.0 Safari/537.36","WebKit","Chrome","128.0.0.0","Windows","10.0","https://app.prolific.com/","en-US,en;q=0.9","66a0172986186ec228714d51","67949641171f97c04e14fb34","679511de6387b4fb6be31979","","null","<img  src='G_7.jpg' height='90'> <img   src='G_9.jpg' height='90'> <img   src='G_3.jpg' height='90'> <img id='selected'  src='G_1.jpg' height='90'> <img id='selected' src='G_5.jpg' height='90'>","null","Animation0",""
"","","","","","html-keyboard-response","108","265861","0.0-22.0","31","1","2025-01-25 16:31:45","af8d355d56820e421d246a7037deb6e6","104.218.199.22","Mozilla/5.0 (Windows NT 10.0; Win64; x64) AppleWebKit/537.36 (KHTML, like Gecko) Chrome/128.0.0.0 Safari/537.36","WebKit","Chrome","128.0.0.0","Windows","10.0","https://app.prolific.com/","en-US,en;q=0.9","66a0172986186ec228714d51","67949641171f97c04e14fb34","679511de6387b4fb6be31979","","null","<img  src='G_7.jpg' height='90'> <img   src='G_9.jpg' height='90'> <img   src='G_3.jpg' height='90'> <img id='selected'  src='G_1.jpg' height='90'> <img id='selected' src='G_5.jpg' height='90'>","null","Animation0",""
"","","","","","html-keyboard-response","109","266169","0.0-23.0","31","1","2025-01-25 16:31:45","af8d355d56820e421d246a7037deb6e6","104.218.199.22","Mozilla/5.0 (Windows NT 10.0; Win64; x64) AppleWebKit/537.36 (KHTML, like Gecko) Chrome/128.0.0.0 Safari/537.36","WebKit","Chrome","128.0.0.0","Windows","10.0","https://app.prolific.com/","en-US,en;q=0.9","66a0172986186ec228714d51","67949641171f97c04e14fb34","679511de6387b4fb6be31979","","null","<img  src='G_7.jpg' height='90'> <img   src='G_9.jpg' height='90'> <img   src='G_3.jpg' height='90'> <img   src='G_1.jpg' height='90'> <img  src='G_5.jpg' height='90'>","null","Animation0",""
"","","","","","html-keyboard-response","110","273632","0.0-24.0","31","1","2025-01-25 16:31:45","af8d355d56820e421d246a7037deb6e6","104.218.199.22","Mozilla/5.0 (Windows NT 10.0; Win64; x64) AppleWebKit/537.36 (KHTML, like Gecko) Chrome/128.0.0.0 Safari/537.36","WebKit","Chrome","128.0.0.0","Windows","10.0","https://app.prolific.com/","en-US,en;q=0.9","66a0172986186ec228714d51","67949641171f97c04e14fb34","679511de6387b4fb6be31979","","7457","[""Did you notice any patterns? <br><br>Press Enter to watch that example again and follow the steps of Omgne Sort.""]","enter","",""
"","","","","","html-button-response","111","274037","0.0-25.0","31","1","2025-01-25 16:31:45","af8d355d56820e421d246a7037deb6e6","104.218.199.22","Mozilla/5.0 (Windows NT 10.0; Win64; x64) AppleWebKit/537.36 (KHTML, like Gecko) Chrome/128.0.0.0 Safari/537.36","WebKit","Chrome","128.0.0.0","Windows","10.0","https://app.prolific.com/","en-US,en;q=0.9","66a0172986186ec228714d51","67949641171f97c04e14fb34","679511de6387b4fb6be31979","","null","<img id='selected' src='G_9.jpg' height='90'> <img src='G_7.jpg' height='90'> <img src='G_3.jpg' height='90'> <img src='G_1.jpg' height='90'> <img src='G_5.jpg' height='90'>","null","Learning example 0",""
"","","","","","html-button-response","112","274344","0.0-26.0","31","1","2025-01-25 16:31:45","af8d355d56820e421d246a7037deb6e6","104.218.199.22","Mozilla/5.0 (Windows NT 10.0; Win64; x64) AppleWebKit/537.36 (KHTML, like Gecko) Chrome/128.0.0.0 Safari/537.36","WebKit","Chrome","128.0.0.0","Windows","10.0","https://app.prolific.com/","en-US,en;q=0.9","66a0172986186ec228714d51","67949641171f97c04e14fb34","679511de6387b4fb6be31979","","null","<img id='selected' src='G_9.jpg' height='90'> <img id='selected' src='G_7.jpg' height='90'> <img src='G_3.jpg' height='90'> <img src='G_1.jpg' height='90'> <img src='G_5.jpg' height='90'>","null","Learning example 0",""
"","","","","","html-button-response","113","274654","0.0-27.0","31","1","2025-01-25 16:31:45","af8d355d56820e421d246a7037deb6e6","104.218.199.22","Mozilla/5.0 (Windows NT 10.0; Win64; x64) AppleWebKit/537.36 (KHTML, like Gecko) Chrome/128.0.0.0 Safari/537.36","WebKit","Chrome","128.0.0.0","Windows","10.0","https://app.prolific.com/","en-US,en;q=0.9","66a0172986186ec228714d51","67949641171f97c04e14fb34","679511de6387b4fb6be31979","","null","<img id='swapped' src='G_7.jpg' height='90'> <img id='swapped' src='G_9.jpg' height='90'> <img src='G_3.jpg' height='90'> <img src='G_1.jpg' height='90'> <img src='G_5.jpg' height='90'>","null","Learning example 0",""
"","","","","","html-button-response","114","282121","0.0-28.0-0.0-0.0","31","1","2025-01-25 16:31:45","af8d355d56820e421d246a7037deb6e6","104.218.199.22","Mozilla/5.0 (Windows NT 10.0; Win64; x64) AppleWebKit/537.36 (KHTML, like Gecko) Chrome/128.0.0.0 Safari/537.36","WebKit","Chrome","128.0.0.0","Windows","10.0","https://app.prolific.com/","en-US,en;q=0.9","66a0172986186ec228714d51","67949641171f97c04e14fb34","679511de6387b4fb6be31979","","7456","<img id='swapped' src='G_7.jpg' height='90'> <img id='swapped' src='G_9.jpg' height='90'> <img src='G_3.jpg' height='90'> <img src='G_1.jpg' height='90'> <img src='G_5.jpg' height='90'>","0","Learning example 0",""
"","","","","","html-button-response","115","282665","0.0-28.1-0.1-0.1","31","1","2025-01-25 16:31:45","af8d355d56820e421d246a7037deb6e6","104.218.199.22","Mozilla/5.0 (Windows NT 10.0; Win64; x64) AppleWebKit/537.36 (KHTML, like Gecko) Chrome/128.0.0.0 Safari/537.36","WebKit","Chrome","128.0.0.0","Windows","10.0","https://app.prolific.com/","en-US,en;q=0.9","66a0172986186ec228714d51","67949641171f97c04e14fb34","679511de6387b4fb6be31979","","536","<img id='swapped' src='G_7.jpg' height='90'> <img id='swapped' src='G_9.jpg' height='90'> <img src='G_3.jpg' height='90'> <img src='G_1.jpg' height='90'> <img src='G_5.jpg' height='90'>","1","Learning example 0",""
"","","","","","html-button-response","116","282874","0.0-29.0","31","1","2025-01-25 16:31:45","af8d355d56820e421d246a7037deb6e6","104.218.199.22","Mozilla/5.0 (Windows NT 10.0; Win64; x64) AppleWebKit/537.36 (KHTML, like Gecko) Chrome/128.0.0.0 Safari/537.36","WebKit","Chrome","128.0.0.0","Windows","10.0","https://app.prolific.com/","en-US,en;q=0.9","66a0172986186ec228714d51","67949641171f97c04e14fb34","679511de6387b4fb6be31979","","null","<img  src='G_7.jpg' height='90'> <img  src='G_9.jpg' height='90'> <img src='G_3.jpg' height='90'> <img src='G_1.jpg' height='90'> <img src='G_5.jpg' height='90'>","null","Learning example 0",""
"","","","","","html-button-response","117","283284","0.0-30.0","31","1","2025-01-25 16:31:45","af8d355d56820e421d246a7037deb6e6","104.218.199.22","Mozilla/5.0 (Windows NT 10.0; Win64; x64) AppleWebKit/537.36 (KHTML, like Gecko) Chrome/128.0.0.0 Safari/537.36","WebKit","Chrome","128.0.0.0","Windows","10.0","https://app.prolific.com/","en-US,en;q=0.9","66a0172986186ec228714d51","67949641171f97c04e14fb34","679511de6387b4fb6be31979","","null","<img  src='G_7.jpg' height='90'> <img id='selected'  src='G_9.jpg' height='90'> <img src='G_3.jpg' height='90'> <img src='G_1.jpg' height='90'> <img src='G_5.jpg' height='90'>","null","Learning example 0",""
"","","","","","html-button-response","118","283594","0.0-31.0","31","1","2025-01-25 16:31:45","af8d355d56820e421d246a7037deb6e6","104.218.199.22","Mozilla/5.0 (Windows NT 10.0; Win64; x64) AppleWebKit/537.36 (KHTML, like Gecko) Chrome/128.0.0.0 Safari/537.36","WebKit","Chrome","128.0.0.0","Windows","10.0","https://app.prolific.com/","en-US,en;q=0.9","66a0172986186ec228714d51","67949641171f97c04e14fb34","679511de6387b4fb6be31979","","null","<img  src='G_7.jpg' height='90'> <img id='selected'  src='G_9.jpg' height='90'> <img id='selected' src='G_3.jpg' height='90'> <img src='G_1.jpg' height='90'> <img src='G_5.jpg' height='90'>","null","Learning example 0",""
"","","","","","html-button-response","119","283904","0.0-32.0","31","1","2025-01-25 16:31:45","af8d355d56820e421d246a7037deb6e6","104.218.199.22","Mozilla/5.0 (Windows NT 10.0; Win64; x64) AppleWebKit/537.36 (KHTML, like Gecko) Chrome/128.0.0.0 Safari/537.36","WebKit","Chrome","128.0.0.0","Windows","10.0","https://app.prolific.com/","en-US,en;q=0.9","66a0172986186ec228714d51","67949641171f97c04e14fb34","679511de6387b4fb6be31979","","null","<img  src='G_7.jpg' height='90'> <img id='selected'  src='G_9.jpg' height='90'> <img id='selected' src='G_3.jpg' height='90'> <img src='G_1.jpg' height='90'> <img src='G_5.jpg' height='90'>","null","Learning example 0",""
"","","","","","html-button-response","120","284973","0.0-33.0-0.0-0.0","31","1","2025-01-25 16:31:45","af8d355d56820e421d246a7037deb6e6","104.218.199.22","Mozilla/5.0 (Windows NT 10.0; Win64; x64) AppleWebKit/537.36 (KHTML, like Gecko) Chrome/128.0.0.0 Safari/537.36","WebKit","Chrome","128.0.0.0","Windows","10.0","https://app.prolific.com/","en-US,en;q=0.9","66a0172986186ec228714d51","67949641171f97c04e14fb34","679511de6387b4fb6be31979","","1060","<img  src='G_7.jpg' height='90'> <img id='selected'  src='G_9.jpg' height='90'> <img id='selected' src='G_3.jpg' height='90'> <img src='G_1.jpg' height='90'> <img src='G_5.jpg' height='90'>","1","Learning example 0",""
"","","","","","html-button-response","121","285770","0.0-33.1-0.1-0.1","31","1","2025-01-25 16:31:45","af8d355d56820e421d246a7037deb6e6","104.218.199.22","Mozilla/5.0 (Windows NT 10.0; Win64; x64) AppleWebKit/537.36 (KHTML, like Gecko) Chrome/128.0.0.0 Safari/537.36","WebKit","Chrome","128.0.0.0","Windows","10.0","https://app.prolific.com/","en-US,en;q=0.9","66a0172986186ec228714d51","67949641171f97c04e14fb34","679511de6387b4fb6be31979","","787","<img  src='G_7.jpg' height='90'> <img id='selected'  src='G_9.jpg' height='90'> <img id='selected' src='G_3.jpg' height='90'> <img src='G_1.jpg' height='90'> <img src='G_5.jpg' height='90'>","2","Learning example 0",""
"","","","","","html-button-response","122","285979","0.0-34.0","31","1","2025-01-25 16:31:45","af8d355d56820e421d246a7037deb6e6","104.218.199.22","Mozilla/5.0 (Windows NT 10.0; Win64; x64) AppleWebKit/537.36 (KHTML, like Gecko) Chrome/128.0.0.0 Safari/537.36","WebKit","Chrome","128.0.0.0","Windows","10.0","https://app.prolific.com/","en-US,en;q=0.9","66a0172986186ec228714d51","67949641171f97c04e14fb34","679511de6387b4fb6be31979","","null","<img  src='G_7.jpg' height='90'> <img   src='G_9.jpg' height='90'> <img  src='G_3.jpg' height='90'> <img src='G_1.jpg' height='90'> <img src='G_5.jpg' height='90'>","null","Learning example 0",""
"","","","","","html-button-response","123","286389","0.0-35.0","31","1","2025-01-25 16:31:45","af8d355d56820e421d246a7037deb6e6","104.218.199.22","Mozilla/5.0 (Windows NT 10.0; Win64; x64) AppleWebKit/537.36 (KHTML, like Gecko) Chrome/128.0.0.0 Safari/537.36","WebKit","Chrome","128.0.0.0","Windows","10.0","https://app.prolific.com/","en-US,en;q=0.9","66a0172986186ec228714d51","67949641171f97c04e14fb34","679511de6387b4fb6be31979","","null","<img  src='G_7.jpg' height='90'> <img   src='G_9.jpg' height='90'> <img id='selected'  src='G_3.jpg' height='90'> <img src='G_1.jpg' height='90'> <img src='G_5.jpg' height='90'>","null","Learning example 0",""
"","","","","","html-button-response","124","286698","0.0-36.0","31","1","2025-01-25 16:31:45","af8d355d56820e421d246a7037deb6e6","104.218.199.22","Mozilla/5.0 (Windows NT 10.0; Win64; x64) AppleWebKit/537.36 (KHTML, like Gecko) Chrome/128.0.0.0 Safari/537.36","WebKit","Chrome","128.0.0.0","Windows","10.0","https://app.prolific.com/","en-US,en;q=0.9","66a0172986186ec228714d51","67949641171f97c04e14fb34","679511de6387b4fb6be31979","","null","<img  src='G_7.jpg' height='90'> <img   src='G_9.jpg' height='90'> <img id='selected'  src='G_3.jpg' height='90'> <img id='selected' src='G_1.jpg' height='90'> <img src='G_5.jpg' height='90'>","null","Learning example 0",""
"","","","","","html-button-response","125","287008","0.0-37.0","31","1","2025-01-25 16:31:45","af8d355d56820e421d246a7037deb6e6","104.218.199.22","Mozilla/5.0 (Windows NT 10.0; Win64; x64) AppleWebKit/537.36 (KHTML, like Gecko) Chrome/128.0.0.0 Safari/537.36","WebKit","Chrome","128.0.0.0","Windows","10.0","https://app.prolific.com/","en-US,en;q=0.9","66a0172986186ec228714d51","67949641171f97c04e14fb34","679511de6387b4fb6be31979","","null","<img  src='G_7.jpg' height='90'> <img   src='G_9.jpg' height='90'> <img id='selected'  src='G_3.jpg' height='90'> <img id='selected' src='G_1.jpg' height='90'> <img src='G_5.jpg' height='90'>","null","Learning example 0",""
"","","","","","html-button-response","126","287394","0.0-38.0-0.0-0.0","31","1","2025-01-25 16:31:45","af8d355d56820e421d246a7037deb6e6","104.218.199.22","Mozilla/5.0 (Windows NT 10.0; Win64; x64) AppleWebKit/537.36 (KHTML, like Gecko) Chrome/128.0.0.0 Safari/537.36","WebKit","Chrome","128.0.0.0","Windows","10.0","https://app.prolific.com/","en-US,en;q=0.9","66a0172986186ec228714d51","67949641171f97c04e14fb34","679511de6387b4fb6be31979","","375","<img  src='G_7.jpg' height='90'> <img   src='G_9.jpg' height='90'> <img id='selected'  src='G_3.jpg' height='90'> <img id='selected' src='G_1.jpg' height='90'> <img src='G_5.jpg' height='90'>","2","Learning example 0",""
"","","","","","html-button-response","127","288282","0.0-38.1-0.1-0.1","31","1","2025-01-25 16:31:45","af8d355d56820e421d246a7037deb6e6","104.218.199.22","Mozilla/5.0 (Windows NT 10.0; Win64; x64) AppleWebKit/537.36 (KHTML, like Gecko) Chrome/128.0.0.0 Safari/537.36","WebKit","Chrome","128.0.0.0","Windows","10.0","https://app.prolific.com/","en-US,en;q=0.9","66a0172986186ec228714d51","67949641171f97c04e14fb34","679511de6387b4fb6be31979","","877","<img  src='G_7.jpg' height='90'> <img   src='G_9.jpg' height='90'> <img id='selected'  src='G_3.jpg' height='90'> <img id='selected' src='G_1.jpg' height='90'> <img src='G_5.jpg' height='90'>","3","Learning example 0",""
"","","","","","html-button-response","128","288493","0.0-39.0","31","1","2025-01-25 16:31:45","af8d355d56820e421d246a7037deb6e6","104.218.199.22","Mozilla/5.0 (Windows NT 10.0; Win64; x64) AppleWebKit/537.36 (KHTML, like Gecko) Chrome/128.0.0.0 Safari/537.36","WebKit","Chrome","128.0.0.0","Windows","10.0","https://app.prolific.com/","en-US,en;q=0.9","66a0172986186ec228714d51","67949641171f97c04e14fb34","679511de6387b4fb6be31979","","null","<img  src='G_7.jpg' height='90'> <img   src='G_9.jpg' height='90'> <img   src='G_3.jpg' height='90'> <img  src='G_1.jpg' height='90'> <img src='G_5.jpg' height='90'>","null","Learning example 0",""
"","","","","","html-button-response","129","288902","0.0-40.0","31","1","2025-01-25 16:31:45","af8d355d56820e421d246a7037deb6e6","104.218.199.22","Mozilla/5.0 (Windows NT 10.0; Win64; x64) AppleWebKit/537.36 (KHTML, like Gecko) Chrome/128.0.0.0 Safari/537.36","WebKit","Chrome","128.0.0.0","Windows","10.0","https://app.prolific.com/","en-US,en;q=0.9","66a0172986186ec228714d51","67949641171f97c04e14fb34","679511de6387b4fb6be31979","","null","<img  src='G_7.jpg' height='90'> <img   src='G_9.jpg' height='90'> <img   src='G_3.jpg' height='90'> <img id='selected'  src='G_1.jpg' height='90'> <img src='G_5.jpg' height='90'>","null","Learning example 0",""
"","","","","","html-button-response","130","289206","0.0-41.0","31","1","2025-01-25 16:31:45","af8d355d56820e421d246a7037deb6e6","104.218.199.22","Mozilla/5.0 (Windows NT 10.0; Win64; x64) AppleWebKit/537.36 (KHTML, like Gecko) Chrome/128.0.0.0 Safari/537.36","WebKit","Chrome","128.0.0.0","Windows","10.0","https://app.prolific.com/","en-US,en;q=0.9","66a0172986186ec228714d51","67949641171f97c04e14fb34","679511de6387b4fb6be31979","","null","<img  src='G_7.jpg' height='90'> <img   src='G_9.jpg' height='90'> <img   src='G_3.jpg' height='90'> <img id='selected'  src='G_1.jpg' height='90'> <img id='selected' src='G_5.jpg' height='90'>","null","Learning example 0",""
"","","","","","html-button-response","131","289516","0.0-42.0","31","1","2025-01-25 16:31:45","af8d355d56820e421d246a7037deb6e6","104.218.199.22","Mozilla/5.0 (Windows NT 10.0; Win64; x64) AppleWebKit/537.36 (KHTML, like Gecko) Chrome/128.0.0.0 Safari/537.36","WebKit","Chrome","128.0.0.0","Windows","10.0","https://app.prolific.com/","en-US,en;q=0.9","66a0172986186ec228714d51","67949641171f97c04e14fb34","679511de6387b4fb6be31979","","null","<img  src='G_7.jpg' height='90'> <img   src='G_9.jpg' height='90'> <img   src='G_3.jpg' height='90'> <img id='selected'  src='G_1.jpg' height='90'> <img id='selected' src='G_5.jpg' height='90'>","null","Learning example 0",""
"","","","","","html-button-response","132","290367","0.0-43.0-0.0-0.0","31","1","2025-01-25 16:31:45","af8d355d56820e421d246a7037deb6e6","104.218.199.22","Mozilla/5.0 (Windows NT 10.0; Win64; x64) AppleWebKit/537.36 (KHTML, like Gecko) Chrome/128.0.0.0 Safari/537.36","WebKit","Chrome","128.0.0.0","Windows","10.0","https://app.prolific.com/","en-US,en;q=0.9","66a0172986186ec228714d51","67949641171f97c04e14fb34","679511de6387b4fb6be31979","","839","<img  src='G_7.jpg' height='90'> <img   src='G_9.jpg' height='90'> <img   src='G_3.jpg' height='90'> <img id='selected'  src='G_1.jpg' height='90'> <img id='selected' src='G_5.jpg' height='90'>","4","Learning example 0",""
"","","","","","html-button-response","133","291276","0.0-43.1-0.1-0.1","31","1","2025-01-25 16:31:45","af8d355d56820e421d246a7037deb6e6","104.218.199.22","Mozilla/5.0 (Windows NT 10.0; Win64; x64) AppleWebKit/537.36 (KHTML, like Gecko) Chrome/128.0.0.0 Safari/537.36","WebKit","Chrome","128.0.0.0","Windows","10.0","https://app.prolific.com/","en-US,en;q=0.9","66a0172986186ec228714d51","67949641171f97c04e14fb34","679511de6387b4fb6be31979","","897","<img  src='G_7.jpg' height='90'> <img   src='G_9.jpg' height='90'> <img   src='G_3.jpg' height='90'> <img id='selected'  src='G_1.jpg' height='90'> <img id='selected' src='G_5.jpg' height='90'>","3","Learning example 0",""
"","","","","","html-button-response","134","291488","0.0-44.0","31","1","2025-01-25 16:31:45","af8d355d56820e421d246a7037deb6e6","104.218.199.22","Mozilla/5.0 (Windows NT 10.0; Win64; x64) AppleWebKit/537.36 (KHTML, like Gecko) Chrome/128.0.0.0 Safari/537.36","WebKit","Chrome","128.0.0.0","Windows","10.0","https://app.prolific.com/","en-US,en;q=0.9","66a0172986186ec228714d51","67949641171f97c04e14fb34","679511de6387b4fb6be31979","","null","<img  src='G_7.jpg' height='90'> <img   src='G_9.jpg' height='90'> <img   src='G_3.jpg' height='90'> <img   src='G_1.jpg' height='90'> <img  src='G_5.jpg' height='90'>","null","Learning example 0",""
"","","","","","html-keyboard-response","135","297271","0.0-45.0","31","1","2025-01-25 16:31:45","af8d355d56820e421d246a7037deb6e6","104.218.199.22","Mozilla/5.0 (Windows NT 10.0; Win64; x64) AppleWebKit/537.36 (KHTML, like Gecko) Chrome/128.0.0.0 Safari/537.36","WebKit","Chrome","128.0.0.0","Windows","10.0","https://app.prolific.com/","en-US,en;q=0.9","66a0172986186ec228714d51","67949641171f97c04e14fb34","679511de6387b4fb6be31979","","5775","[""Final order was 1,2,3,4,5. The initial order was 2,1,3,4,5.<br>It took 1 swaps to sort it correctly with Omgne Sort. <br><br>Press Enter to continue.""]","enter","",""
"","","","","","html-keyboard-response","136","300149","0.0-46.0","31","1","2025-01-25 16:31:45","af8d355d56820e421d246a7037deb6e6","104.218.199.22","Mozilla/5.0 (Windows NT 10.0; Win64; x64) AppleWebKit/537.36 (KHTML, like Gecko) Chrome/128.0.0.0 Safari/537.36","WebKit","Chrome","128.0.0.0","Windows","10.0","https://app.prolific.com/","en-US,en;q=0.9","66a0172986186ec228714d51","67949641171f97c04e14fb34","679511de6387b4fb6be31979","","2875","[""Example 2<br><br>You will watch Omnge Sort in action. Try to identify any patterns in the comparisons made by this method. <br><br>Press Enter to continue.""]","enter","",""
"","","","","","html-keyboard-response","137","300654","0.0-47.0","31","1","2025-01-25 16:31:45","af8d355d56820e421d246a7037deb6e6","104.218.199.22","Mozilla/5.0 (Windows NT 10.0; Win64; x64) AppleWebKit/537.36 (KHTML, like Gecko) Chrome/128.0.0.0 Safari/537.36","WebKit","Chrome","128.0.0.0","Windows","10.0","https://app.prolific.com/","en-US,en;q=0.9","66a0172986186ec228714d51","67949641171f97c04e14fb34","679511de6387b4fb6be31979","","null","<img id='selected' src='G_8.jpg' height='90'> <img src='G_5.jpg' height='90'> <img src='G_4.jpg' height='90'> <img src='G_7.jpg' height='90'> <img src='G_6.jpg' height='90'> <img src='G_2.jpg' height='90'> <img src='G_3.jpg' height='90'> <img src='G_1.jpg' height='90'>","null","Animation1",""
"","","","","","html-keyboard-response","138","301163","0.0-48.0","31","1","2025-01-25 16:31:45","af8d355d56820e421d246a7037deb6e6","104.218.199.22","Mozilla/5.0 (Windows NT 10.0; Win64; x64) AppleWebKit/537.36 (KHTML, like Gecko) Chrome/128.0.0.0 Safari/537.36","WebKit","Chrome","128.0.0.0","Windows","10.0","https://app.prolific.com/","en-US,en;q=0.9","66a0172986186ec228714d51","67949641171f97c04e14fb34","679511de6387b4fb6be31979","","null","<img id='selected' src='G_8.jpg' height='90'> <img id='selected' src='G_5.jpg' height='90'> <img src='G_4.jpg' height='90'> <img src='G_7.jpg' height='90'> <img src='G_6.jpg' height='90'> <img src='G_2.jpg' height='90'> <img src='G_3.jpg' height='90'> <img src='G_1.jpg' height='90'>","null","Animation1",""
"","","","","","html-keyboard-response","139","301673","0.0-49.0","31","1","2025-01-25 16:31:45","af8d355d56820e421d246a7037deb6e6","104.218.199.22","Mozilla/5.0 (Windows NT 10.0; Win64; x64) AppleWebKit/537.36 (KHTML, like Gecko) Chrome/128.0.0.0 Safari/537.36","WebKit","Chrome","128.0.0.0","Windows","10.0","https://app.prolific.com/","en-US,en;q=0.9","66a0172986186ec228714d51","67949641171f97c04e14fb34","679511de6387b4fb6be31979","","null","<img id='selected' src='G_8.jpg' height='90'> <img id='selected' src='G_5.jpg' height='90'> <img src='G_4.jpg' height='90'> <img src='G_7.jpg' height='90'> <img src='G_6.jpg' height='90'> <img src='G_2.jpg' height='90'> <img src='G_3.jpg' height='90'> <img src='G_1.jpg' height='90'>","null","Animation1",""
"","","","","","html-keyboard-response","140","301983","0.0-50.0","31","1","2025-01-25 16:31:45","af8d355d56820e421d246a7037deb6e6","104.218.199.22","Mozilla/5.0 (Windows NT 10.0; Win64; x64) AppleWebKit/537.36 (KHTML, like Gecko) Chrome/128.0.0.0 Safari/537.36","WebKit","Chrome","128.0.0.0","Windows","10.0","https://app.prolific.com/","en-US,en;q=0.9","66a0172986186ec228714d51","67949641171f97c04e14fb34","679511de6387b4fb6be31979","","null","<img  src='G_8.jpg' height='90'> <img  src='G_5.jpg' height='90'> <img src='G_4.jpg' height='90'> <img src='G_7.jpg' height='90'> <img src='G_6.jpg' height='90'> <img src='G_2.jpg' height='90'> <img src='G_3.jpg' height='90'> <img src='G_1.jpg' height='90'>","null","Animation1",""
"","","","","","html-keyboard-response","141","302492","0.0-51.0","31","1","2025-01-25 16:31:45","af8d355d56820e421d246a7037deb6e6","104.218.199.22","Mozilla/5.0 (Windows NT 10.0; Win64; x64) AppleWebKit/537.36 (KHTML, like Gecko) Chrome/128.0.0.0 Safari/537.36","WebKit","Chrome","128.0.0.0","Windows","10.0","https://app.prolific.com/","en-US,en;q=0.9","66a0172986186ec228714d51","67949641171f97c04e14fb34","679511de6387b4fb6be31979","","null","<img  src='G_8.jpg' height='90'> <img id='selected'  src='G_5.jpg' height='90'> <img src='G_4.jpg' height='90'> <img src='G_7.jpg' height='90'> <img src='G_6.jpg' height='90'> <img src='G_2.jpg' height='90'> <img src='G_3.jpg' height='90'> <img src='G_1.jpg' height='90'>","null","Animation1",""
"","","","","","html-keyboard-response","142","303002","0.0-52.0","31","1","2025-01-25 16:31:45","af8d355d56820e421d246a7037deb6e6","104.218.199.22","Mozilla/5.0 (Windows NT 10.0; Win64; x64) AppleWebKit/537.36 (KHTML, like Gecko) Chrome/128.0.0.0 Safari/537.36","WebKit","Chrome","128.0.0.0","Windows","10.0","https://app.prolific.com/","en-US,en;q=0.9","66a0172986186ec228714d51","67949641171f97c04e14fb34","679511de6387b4fb6be31979","","null","<img  src='G_8.jpg' height='90'> <img id='selected'  src='G_5.jpg' height='90'> <img id='selected' src='G_4.jpg' height='90'> <img src='G_7.jpg' height='90'> <img src='G_6.jpg' height='90'> <img src='G_2.jpg' height='90'> <img src='G_3.jpg' height='90'> <img src='G_1.jpg' height='90'>","null","Animation1",""
"","","","","","html-keyboard-response","143","303512","0.0-53.0","31","1","2025-01-25 16:31:45","af8d355d56820e421d246a7037deb6e6","104.218.199.22","Mozilla/5.0 (Windows NT 10.0; Win64; x64) AppleWebKit/537.36 (KHTML, like Gecko) Chrome/128.0.0.0 Safari/537.36","WebKit","Chrome","128.0.0.0","Windows","10.0","https://app.prolific.com/","en-US,en;q=0.9","66a0172986186ec228714d51","67949641171f97c04e14fb34","679511de6387b4fb6be31979","","null","<img  src='G_8.jpg' height='90'> <img id='swapped' src='G_4.jpg' height='90'> <img id='swapped'  src='G_5.jpg' height='90'> <img src='G_7.jpg' height='90'> <img src='G_6.jpg' height='90'> <img src='G_2.jpg' height='90'> <img src='G_3.jpg' height='90'> <img src='G_1.jpg' height='90'>","null","Animation1",""
"","","","","","html-keyboard-response","144","303820","0.0-54.0","31","1","2025-01-25 16:31:45","af8d355d56820e421d246a7037deb6e6","104.218.199.22","Mozilla/5.0 (Windows NT 10.0; Win64; x64) AppleWebKit/537.36 (KHTML, like Gecko) Chrome/128.0.0.0 Safari/537.36","WebKit","Chrome","128.0.0.0","Windows","10.0","https://app.prolific.com/","en-US,en;q=0.9","66a0172986186ec228714d51","67949641171f97c04e14fb34","679511de6387b4fb6be31979","","null","<img  src='G_8.jpg' height='90'> <img  src='G_4.jpg' height='90'> <img   src='G_5.jpg' height='90'> <img src='G_7.jpg' height='90'> <img src='G_6.jpg' height='90'> <img src='G_2.jpg' height='90'> <img src='G_3.jpg' height='90'> <img src='G_1.jpg' height='90'>","null","Animation1",""
"","","","","","html-keyboard-response","145","304330","0.0-55.0","31","1","2025-01-25 16:31:45","af8d355d56820e421d246a7037deb6e6","104.218.199.22","Mozilla/5.0 (Windows NT 10.0; Win64; x64) AppleWebKit/537.36 (KHTML, like Gecko) Chrome/128.0.0.0 Safari/537.36","WebKit","Chrome","128.0.0.0","Windows","10.0","https://app.prolific.com/","en-US,en;q=0.9","66a0172986186ec228714d51","67949641171f97c04e14fb34","679511de6387b4fb6be31979","","null","<img id='selected'  src='G_8.jpg' height='90'> <img  src='G_4.jpg' height='90'> <img   src='G_5.jpg' height='90'> <img src='G_7.jpg' height='90'> <img src='G_6.jpg' height='90'> <img src='G_2.jpg' height='90'> <img src='G_3.jpg' height='90'> <img src='G_1.jpg' height='90'>","null","Animation1",""
"","","","","","html-keyboard-response","146","304840","0.0-56.0","31","1","2025-01-25 16:31:45","af8d355d56820e421d246a7037deb6e6","104.218.199.22","Mozilla/5.0 (Windows NT 10.0; Win64; x64) AppleWebKit/537.36 (KHTML, like Gecko) Chrome/128.0.0.0 Safari/537.36","WebKit","Chrome","128.0.0.0","Windows","10.0","https://app.prolific.com/","en-US,en;q=0.9","66a0172986186ec228714d51","67949641171f97c04e14fb34","679511de6387b4fb6be31979","","null","<img id='selected'  src='G_8.jpg' height='90'> <img id='selected'  src='G_4.jpg' height='90'> <img   src='G_5.jpg' height='90'> <img src='G_7.jpg' height='90'> <img src='G_6.jpg' height='90'> <img src='G_2.jpg' height='90'> <img src='G_3.jpg' height='90'> <img src='G_1.jpg' height='90'>","null","Animation1",""
"","","","","","html-keyboard-response","147","305350","0.0-57.0","31","1","2025-01-25 16:31:45","af8d355d56820e421d246a7037deb6e6","104.218.199.22","Mozilla/5.0 (Windows NT 10.0; Win64; x64) AppleWebKit/537.36 (KHTML, like Gecko) Chrome/128.0.0.0 Safari/537.36","WebKit","Chrome","128.0.0.0","Windows","10.0","https://app.prolific.com/","en-US,en;q=0.9","66a0172986186ec228714d51","67949641171f97c04e14fb34","679511de6387b4fb6be31979","","null","<img id='swapped'  src='G_4.jpg' height='90'> <img id='swapped'  src='G_8.jpg' height='90'> <img   src='G_5.jpg' height='90'> <img src='G_7.jpg' height='90'> <img src='G_6.jpg' height='90'> <img src='G_2.jpg' height='90'> <img src='G_3.jpg' height='90'> <img src='G_1.jpg' height='90'>","null","Animation1",""
"","","","","","html-keyboard-response","148","305660","0.0-58.0","31","1","2025-01-25 16:31:45","af8d355d56820e421d246a7037deb6e6","104.218.199.22","Mozilla/5.0 (Windows NT 10.0; Win64; x64) AppleWebKit/537.36 (KHTML, like Gecko) Chrome/128.0.0.0 Safari/537.36","WebKit","Chrome","128.0.0.0","Windows","10.0","https://app.prolific.com/","en-US,en;q=0.9","66a0172986186ec228714d51","67949641171f97c04e14fb34","679511de6387b4fb6be31979","","null","<img   src='G_4.jpg' height='90'> <img   src='G_8.jpg' height='90'> <img   src='G_5.jpg' height='90'> <img src='G_7.jpg' height='90'> <img src='G_6.jpg' height='90'> <img src='G_2.jpg' height='90'> <img src='G_3.jpg' height='90'> <img src='G_1.jpg' height='90'>","null","Animation1",""
"","","","","","html-keyboard-response","149","306170","0.0-59.0","31","1","2025-01-25 16:31:45","af8d355d56820e421d246a7037deb6e6","104.218.199.22","Mozilla/5.0 (Windows NT 10.0; Win64; x64) AppleWebKit/537.36 (KHTML, like Gecko) Chrome/128.0.0.0 Safari/537.36","WebKit","Chrome","128.0.0.0","Windows","10.0","https://app.prolific.com/","en-US,en;q=0.9","66a0172986186ec228714d51","67949641171f97c04e14fb34","679511de6387b4fb6be31979","","null","<img   src='G_4.jpg' height='90'> <img   src='G_8.jpg' height='90'> <img id='selected'   src='G_5.jpg' height='90'> <img src='G_7.jpg' height='90'> <img src='G_6.jpg' height='90'> <img src='G_2.jpg' height='90'> <img src='G_3.jpg' height='90'> <img src='G_1.jpg' height='90'>","null","Animation1",""
"","","","","","html-keyboard-response","150","306680","0.0-60.0","31","1","2025-01-25 16:31:45","af8d355d56820e421d246a7037deb6e6","104.218.199.22","Mozilla/5.0 (Windows NT 10.0; Win64; x64) AppleWebKit/537.36 (KHTML, like Gecko) Chrome/128.0.0.0 Safari/537.36","WebKit","Chrome","128.0.0.0","Windows","10.0","https://app.prolific.com/","en-US,en;q=0.9","66a0172986186ec228714d51","67949641171f97c04e14fb34","679511de6387b4fb6be31979","","null","<img   src='G_4.jpg' height='90'> <img   src='G_8.jpg' height='90'> <img id='selected'   src='G_5.jpg' height='90'> <img id='selected' src='G_7.jpg' height='90'> <img src='G_6.jpg' height='90'> <img src='G_2.jpg' height='90'> <img src='G_3.jpg' height='90'> <img src='G_1.jpg' height='90'>","null","Animation1",""
"","","","","","html-keyboard-response","151","307191","0.0-61.0","31","1","2025-01-25 16:31:45","af8d355d56820e421d246a7037deb6e6","104.218.199.22","Mozilla/5.0 (Windows NT 10.0; Win64; x64) AppleWebKit/537.36 (KHTML, like Gecko) Chrome/128.0.0.0 Safari/537.36","WebKit","Chrome","128.0.0.0","Windows","10.0","https://app.prolific.com/","en-US,en;q=0.9","66a0172986186ec228714d51","67949641171f97c04e14fb34","679511de6387b4fb6be31979","","null","<img   src='G_4.jpg' height='90'> <img   src='G_8.jpg' height='90'> <img id='swapped' src='G_7.jpg' height='90'> <img id='swapped'   src='G_5.jpg' height='90'> <img src='G_6.jpg' height='90'> <img src='G_2.jpg' height='90'> <img src='G_3.jpg' height='90'> <img src='G_1.jpg' height='90'>","null","Animation1",""
"","","","","","html-keyboard-response","152","307501","0.0-62.0","31","1","2025-01-25 16:31:45","af8d355d56820e421d246a7037deb6e6","104.218.199.22","Mozilla/5.0 (Windows NT 10.0; Win64; x64) AppleWebKit/537.36 (KHTML, like Gecko) Chrome/128.0.0.0 Safari/537.36","WebKit","Chrome","128.0.0.0","Windows","10.0","https://app.prolific.com/","en-US,en;q=0.9","66a0172986186ec228714d51","67949641171f97c04e14fb34","679511de6387b4fb6be31979","","null","<img   src='G_4.jpg' height='90'> <img   src='G_8.jpg' height='90'> <img  src='G_7.jpg' height='90'> <img    src='G_5.jpg' height='90'> <img src='G_6.jpg' height='90'> <img src='G_2.jpg' height='90'> <img src='G_3.jpg' height='90'> <img src='G_1.jpg' height='90'>","null","Animation1",""
"","","","","","html-keyboard-response","153","308011","0.0-63.0","31","1","2025-01-25 16:31:45","af8d355d56820e421d246a7037deb6e6","104.218.199.22","Mozilla/5.0 (Windows NT 10.0; Win64; x64) AppleWebKit/537.36 (KHTML, like Gecko) Chrome/128.0.0.0 Safari/537.36","WebKit","Chrome","128.0.0.0","Windows","10.0","https://app.prolific.com/","en-US,en;q=0.9","66a0172986186ec228714d51","67949641171f97c04e14fb34","679511de6387b4fb6be31979","","null","<img   src='G_4.jpg' height='90'> <img id='selected'   src='G_8.jpg' height='90'> <img  src='G_7.jpg' height='90'> <img    src='G_5.jpg' height='90'> <img src='G_6.jpg' height='90'> <img src='G_2.jpg' height='90'> <img src='G_3.jpg' height='90'> <img src='G_1.jpg' height='90'>","null","Animation1",""
"","","","","","html-keyboard-response","154","308521","0.0-64.0","31","1","2025-01-25 16:31:45","af8d355d56820e421d246a7037deb6e6","104.218.199.22","Mozilla/5.0 (Windows NT 10.0; Win64; x64) AppleWebKit/537.36 (KHTML, like Gecko) Chrome/128.0.0.0 Safari/537.36","WebKit","Chrome","128.0.0.0","Windows","10.0","https://app.prolific.com/","en-US,en;q=0.9","66a0172986186ec228714d51","67949641171f97c04e14fb34","679511de6387b4fb6be31979","","null","<img   src='G_4.jpg' height='90'> <img id='selected'   src='G_8.jpg' height='90'> <img id='selected'  src='G_7.jpg' height='90'> <img    src='G_5.jpg' height='90'> <img src='G_6.jpg' height='90'> <img src='G_2.jpg' height='90'> <img src='G_3.jpg' height='90'> <img src='G_1.jpg' height='90'>","null","Animation1",""
"","","","","","html-keyboard-response","155","309033","0.0-65.0","31","1","2025-01-25 16:31:45","af8d355d56820e421d246a7037deb6e6","104.218.199.22","Mozilla/5.0 (Windows NT 10.0; Win64; x64) AppleWebKit/537.36 (KHTML, like Gecko) Chrome/128.0.0.0 Safari/537.36","WebKit","Chrome","128.0.0.0","Windows","10.0","https://app.prolific.com/","en-US,en;q=0.9","66a0172986186ec228714d51","67949641171f97c04e14fb34","679511de6387b4fb6be31979","","null","<img   src='G_4.jpg' height='90'> <img id='swapped'  src='G_7.jpg' height='90'> <img id='swapped'   src='G_8.jpg' height='90'> <img    src='G_5.jpg' height='90'> <img src='G_6.jpg' height='90'> <img src='G_2.jpg' height='90'> <img src='G_3.jpg' height='90'> <img src='G_1.jpg' height='90'>","null","Animation1",""
"","","","","","html-keyboard-response","156","309344","0.0-66.0","31","1","2025-01-25 16:31:45","af8d355d56820e421d246a7037deb6e6","104.218.199.22","Mozilla/5.0 (Windows NT 10.0; Win64; x64) AppleWebKit/537.36 (KHTML, like Gecko) Chrome/128.0.0.0 Safari/537.36","WebKit","Chrome","128.0.0.0","Windows","10.0","https://app.prolific.com/","en-US,en;q=0.9","66a0172986186ec228714d51","67949641171f97c04e14fb34","679511de6387b4fb6be31979","","null","<img   src='G_4.jpg' height='90'> <img   src='G_7.jpg' height='90'> <img    src='G_8.jpg' height='90'> <img    src='G_5.jpg' height='90'> <img src='G_6.jpg' height='90'> <img src='G_2.jpg' height='90'> <img src='G_3.jpg' height='90'> <img src='G_1.jpg' height='90'>","null","Animation1",""
"","","","","","html-keyboard-response","157","309856","0.0-67.0","31","1","2025-01-25 16:31:45","af8d355d56820e421d246a7037deb6e6","104.218.199.22","Mozilla/5.0 (Windows NT 10.0; Win64; x64) AppleWebKit/537.36 (KHTML, like Gecko) Chrome/128.0.0.0 Safari/537.36","WebKit","Chrome","128.0.0.0","Windows","10.0","https://app.prolific.com/","en-US,en;q=0.9","66a0172986186ec228714d51","67949641171f97c04e14fb34","679511de6387b4fb6be31979","","null","<img id='selected'   src='G_4.jpg' height='90'> <img   src='G_7.jpg' height='90'> <img    src='G_8.jpg' height='90'> <img    src='G_5.jpg' height='90'> <img src='G_6.jpg' height='90'> <img src='G_2.jpg' height='90'> <img src='G_3.jpg' height='90'> <img src='G_1.jpg' height='90'>","null","Animation1",""
"","","","","","html-keyboard-response","158","310367","0.0-68.0","31","1","2025-01-25 16:31:45","af8d355d56820e421d246a7037deb6e6","104.218.199.22","Mozilla/5.0 (Windows NT 10.0; Win64; x64) AppleWebKit/537.36 (KHTML, like Gecko) Chrome/128.0.0.0 Safari/537.36","WebKit","Chrome","128.0.0.0","Windows","10.0","https://app.prolific.com/","en-US,en;q=0.9","66a0172986186ec228714d51","67949641171f97c04e14fb34","679511de6387b4fb6be31979","","null","<img id='selected'   src='G_4.jpg' height='90'> <img id='selected'   src='G_7.jpg' height='90'> <img    src='G_8.jpg' height='90'> <img    src='G_5.jpg' height='90'> <img src='G_6.jpg' height='90'> <img src='G_2.jpg' height='90'> <img src='G_3.jpg' height='90'> <img src='G_1.jpg' height='90'>","null","Animation1",""
"","","","","","html-keyboard-response","159","310874","0.0-69.0","31","1","2025-01-25 16:31:45","af8d355d56820e421d246a7037deb6e6","104.218.199.22","Mozilla/5.0 (Windows NT 10.0; Win64; x64) AppleWebKit/537.36 (KHTML, like Gecko) Chrome/128.0.0.0 Safari/537.36","WebKit","Chrome","128.0.0.0","Windows","10.0","https://app.prolific.com/","en-US,en;q=0.9","66a0172986186ec228714d51","67949641171f97c04e14fb34","679511de6387b4fb6be31979","","null","<img id='swapped'   src='G_7.jpg' height='90'> <img id='swapped'   src='G_4.jpg' height='90'> <img    src='G_8.jpg' height='90'> <img    src='G_5.jpg' height='90'> <img src='G_6.jpg' height='90'> <img src='G_2.jpg' height='90'> <img src='G_3.jpg' height='90'> <img src='G_1.jpg' height='90'>","null","Animation1",""
"","","","","","html-keyboard-response","160","311184","0.0-70.0","31","1","2025-01-25 16:31:45","af8d355d56820e421d246a7037deb6e6","104.218.199.22","Mozilla/5.0 (Windows NT 10.0; Win64; x64) AppleWebKit/537.36 (KHTML, like Gecko) Chrome/128.0.0.0 Safari/537.36","WebKit","Chrome","128.0.0.0","Windows","10.0","https://app.prolific.com/","en-US,en;q=0.9","66a0172986186ec228714d51","67949641171f97c04e14fb34","679511de6387b4fb6be31979","","null","<img    src='G_7.jpg' height='90'> <img    src='G_4.jpg' height='90'> <img    src='G_8.jpg' height='90'> <img    src='G_5.jpg' height='90'> <img src='G_6.jpg' height='90'> <img src='G_2.jpg' height='90'> <img src='G_3.jpg' height='90'> <img src='G_1.jpg' height='90'>","null","Animation1",""
"","","","","","html-keyboard-response","161","311696","0.0-71.0","31","1","2025-01-25 16:31:45","af8d355d56820e421d246a7037deb6e6","104.218.199.22","Mozilla/5.0 (Windows NT 10.0; Win64; x64) AppleWebKit/537.36 (KHTML, like Gecko) Chrome/128.0.0.0 Safari/537.36","WebKit","Chrome","128.0.0.0","Windows","10.0","https://app.prolific.com/","en-US,en;q=0.9","66a0172986186ec228714d51","67949641171f97c04e14fb34","679511de6387b4fb6be31979","","null","<img    src='G_7.jpg' height='90'> <img    src='G_4.jpg' height='90'> <img    src='G_8.jpg' height='90'> <img id='selected'    src='G_5.jpg' height='90'> <img src='G_6.jpg' height='90'> <img src='G_2.jpg' height='90'> <img src='G_3.jpg' height='90'> <img src='G_1.jpg' height='90'>","null","Animation1",""
"","","","","","html-keyboard-response","162","312207","0.0-72.0","31","1","2025-01-25 16:31:45","af8d355d56820e421d246a7037deb6e6","104.218.199.22","Mozilla/5.0 (Windows NT 10.0; Win64; x64) AppleWebKit/537.36 (KHTML, like Gecko) Chrome/128.0.0.0 Safari/537.36","WebKit","Chrome","128.0.0.0","Windows","10.0","https://app.prolific.com/","en-US,en;q=0.9","66a0172986186ec228714d51","67949641171f97c04e14fb34","679511de6387b4fb6be31979","","null","<img    src='G_7.jpg' height='90'> <img    src='G_4.jpg' height='90'> <img    src='G_8.jpg' height='90'> <img id='selected'    src='G_5.jpg' height='90'> <img id='selected' src='G_6.jpg' height='90'> <img src='G_2.jpg' height='90'> <img src='G_3.jpg' height='90'> <img src='G_1.jpg' height='90'>","null","Animation1",""
"","","","","","html-keyboard-response","163","312719","0.0-73.0","31","1","2025-01-25 16:31:45","af8d355d56820e421d246a7037deb6e6","104.218.199.22","Mozilla/5.0 (Windows NT 10.0; Win64; x64) AppleWebKit/537.36 (KHTML, like Gecko) Chrome/128.0.0.0 Safari/537.36","WebKit","Chrome","128.0.0.0","Windows","10.0","https://app.prolific.com/","en-US,en;q=0.9","66a0172986186ec228714d51","67949641171f97c04e14fb34","679511de6387b4fb6be31979","","null","<img    src='G_7.jpg' height='90'> <img    src='G_4.jpg' height='90'> <img    src='G_8.jpg' height='90'> <img id='swapped' src='G_6.jpg' height='90'> <img id='swapped'    src='G_5.jpg' height='90'> <img src='G_2.jpg' height='90'> <img src='G_3.jpg' height='90'> <img src='G_1.jpg' height='90'>","null","Animation1",""
"","","","","","html-keyboard-response","164","313030","0.0-74.0","31","1","2025-01-25 16:31:45","af8d355d56820e421d246a7037deb6e6","104.218.199.22","Mozilla/5.0 (Windows NT 10.0; Win64; x64) AppleWebKit/537.36 (KHTML, like Gecko) Chrome/128.0.0.0 Safari/537.36","WebKit","Chrome","128.0.0.0","Windows","10.0","https://app.prolific.com/","en-US,en;q=0.9","66a0172986186ec228714d51","67949641171f97c04e14fb34","679511de6387b4fb6be31979","","null","<img    src='G_7.jpg' height='90'> <img    src='G_4.jpg' height='90'> <img    src='G_8.jpg' height='90'> <img  src='G_6.jpg' height='90'> <img     src='G_5.jpg' height='90'> <img src='G_2.jpg' height='90'> <img src='G_3.jpg' height='90'> <img src='G_1.jpg' height='90'>","null","Animation1",""
"","","","","","html-keyboard-response","165","313542","0.0-75.0","31","1","2025-01-25 16:31:45","af8d355d56820e421d246a7037deb6e6","104.218.199.22","Mozilla/5.0 (Windows NT 10.0; Win64; x64) AppleWebKit/537.36 (KHTML, like Gecko) Chrome/128.0.0.0 Safari/537.36","WebKit","Chrome","128.0.0.0","Windows","10.0","https://app.prolific.com/","en-US,en;q=0.9","66a0172986186ec228714d51","67949641171f97c04e14fb34","679511de6387b4fb6be31979","","null","<img    src='G_7.jpg' height='90'> <img    src='G_4.jpg' height='90'> <img id='selected'    src='G_8.jpg' height='90'> <img  src='G_6.jpg' height='90'> <img     src='G_5.jpg' height='90'> <img src='G_2.jpg' height='90'> <img src='G_3.jpg' height='90'> <img src='G_1.jpg' height='90'>","null","Animation1",""
"","","","","","html-keyboard-response","166","314053","0.0-76.0","31","1","2025-01-25 16:31:45","af8d355d56820e421d246a7037deb6e6","104.218.199.22","Mozilla/5.0 (Windows NT 10.0; Win64; x64) AppleWebKit/537.36 (KHTML, like Gecko) Chrome/128.0.0.0 Safari/537.36","WebKit","Chrome","128.0.0.0","Windows","10.0","https://app.prolific.com/","en-US,en;q=0.9","66a0172986186ec228714d51","67949641171f97c04e14fb34","679511de6387b4fb6be31979","","null","<img    src='G_7.jpg' height='90'> <img    src='G_4.jpg' height='90'> <img id='selected'    src='G_8.jpg' height='90'> <img id='selected'  src='G_6.jpg' height='90'> <img     src='G_5.jpg' height='90'> <img src='G_2.jpg' height='90'> <img src='G_3.jpg' height='90'> <img src='G_1.jpg' height='90'>","null","Animation1",""
"","","","","","html-keyboard-response","167","314565","0.0-77.0","31","1","2025-01-25 16:31:45","af8d355d56820e421d246a7037deb6e6","104.218.199.22","Mozilla/5.0 (Windows NT 10.0; Win64; x64) AppleWebKit/537.36 (KHTML, like Gecko) Chrome/128.0.0.0 Safari/537.36","WebKit","Chrome","128.0.0.0","Windows","10.0","https://app.prolific.com/","en-US,en;q=0.9","66a0172986186ec228714d51","67949641171f97c04e14fb34","679511de6387b4fb6be31979","","null","<img    src='G_7.jpg' height='90'> <img    src='G_4.jpg' height='90'> <img id='swapped'  src='G_6.jpg' height='90'> <img id='swapped'    src='G_8.jpg' height='90'> <img     src='G_5.jpg' height='90'> <img src='G_2.jpg' height='90'> <img src='G_3.jpg' height='90'> <img src='G_1.jpg' height='90'>","null","Animation1",""
"","","","","","html-keyboard-response","168","314875","0.0-78.0","31","1","2025-01-25 16:31:45","af8d355d56820e421d246a7037deb6e6","104.218.199.22","Mozilla/5.0 (Windows NT 10.0; Win64; x64) AppleWebKit/537.36 (KHTML, like Gecko) Chrome/128.0.0.0 Safari/537.36","WebKit","Chrome","128.0.0.0","Windows","10.0","https://app.prolific.com/","en-US,en;q=0.9","66a0172986186ec228714d51","67949641171f97c04e14fb34","679511de6387b4fb6be31979","","null","<img    src='G_7.jpg' height='90'> <img    src='G_4.jpg' height='90'> <img   src='G_6.jpg' height='90'> <img     src='G_8.jpg' height='90'> <img     src='G_5.jpg' height='90'> <img src='G_2.jpg' height='90'> <img src='G_3.jpg' height='90'> <img src='G_1.jpg' height='90'>","null","Animation1",""
"","","","","","html-keyboard-response","169","315387","0.0-79.0","31","1","2025-01-25 16:31:45","af8d355d56820e421d246a7037deb6e6","104.218.199.22","Mozilla/5.0 (Windows NT 10.0; Win64; x64) AppleWebKit/537.36 (KHTML, like Gecko) Chrome/128.0.0.0 Safari/537.36","WebKit","Chrome","128.0.0.0","Windows","10.0","https://app.prolific.com/","en-US,en;q=0.9","66a0172986186ec228714d51","67949641171f97c04e14fb34","679511de6387b4fb6be31979","","null","<img    src='G_7.jpg' height='90'> <img id='selected'    src='G_4.jpg' height='90'> <img   src='G_6.jpg' height='90'> <img     src='G_8.jpg' height='90'> <img     src='G_5.jpg' height='90'> <img src='G_2.jpg' height='90'> <img src='G_3.jpg' height='90'> <img src='G_1.jpg' height='90'>","null","Animation1",""
"","","","","","html-keyboard-response","170","315898","0.0-80.0","31","1","2025-01-25 16:31:45","af8d355d56820e421d246a7037deb6e6","104.218.199.22","Mozilla/5.0 (Windows NT 10.0; Win64; x64) AppleWebKit/537.36 (KHTML, like Gecko) Chrome/128.0.0.0 Safari/537.36","WebKit","Chrome","128.0.0.0","Windows","10.0","https://app.prolific.com/","en-US,en;q=0.9","66a0172986186ec228714d51","67949641171f97c04e14fb34","679511de6387b4fb6be31979","","null","<img    src='G_7.jpg' height='90'> <img id='selected'    src='G_4.jpg' height='90'> <img id='selected'   src='G_6.jpg' height='90'> <img     src='G_8.jpg' height='90'> <img     src='G_5.jpg' height='90'> <img src='G_2.jpg' height='90'> <img src='G_3.jpg' height='90'> <img src='G_1.jpg' height='90'>","null","Animation1",""
