"success","timeout","failed_images","failed_audio","failed_video","trial_type","trial_index","time_elapsed","internal_node_id","run_id","condition","recorded_at","source_code_version","ip","user_agent","device","browser","browser_version","platform","platform_version","referer","accept_language","PROLIFIC_PID","STUDY_ID","SESSION_ID","view_history","rt","stimulus","response","phase","question_order"
"true","false","[]","[]","[]","preload","0","7914","0.0-0.0","32","1","2025-01-25 16:32:09","af8d355d56820e421d246a7037deb6e6","104.218.199.238","Mozilla/5.0 (Windows NT 10.0; Win64; x64) AppleWebKit/537.36 (KHTML, like Gecko) Chrome/127.0.0.0 Safari/537.36","WebKit","Chrome","127.0.0.0","Windows","10.0","https://app.prolific.com/","en-US,en;q=0.9","66986c9ad97d2e5ff07329c1","67949641171f97c04e14fb34","679511e1ed9c3a2d60180cae","","","","","",""
"","","","","","instructions","1","1282933","0.0-1.0","32","1","2025-01-25 16:32:09","af8d355d56820e421d246a7037deb6e6","104.218.199.238","Mozilla/5.0 (Windows NT 10.0; Win64; x64) AppleWebKit/537.36 (KHTML, like Gecko) Chrome/127.0.0.0 Safari/537.36","WebKit","Chrome","127.0.0.0","Windows","10.0","https://app.prolific.com/","en-US,en;q=0.9","66986c9ad97d2e5ff07329c1","67949641171f97c04e14fb34","679511e1ed9c3a2d60180cae","[{""page_index"":0,""viewing_time"":1275013}]","1275016","","","",""
"","","","","","html-keyboard-response","2","1283441","0.0-2.0","32","1","2025-01-25 16:32:09","af8d355d56820e421d246a7037deb6e6","104.218.199.238","Mozilla/5.0 (Windows NT 10.0; Win64; x64) AppleWebKit/537.36 (KHTML, like Gecko) Chrome/127.0.0.0 Safari/537.36","WebKit","Chrome","127.0.0.0","Windows","10.0","https://app.prolific.com/","en-US,en;q=0.9","66986c9ad97d2e5ff07329c1","67949641171f97c04e14fb34","679511e1ed9c3a2d60180cae","","null","<p> + <p/>","null","",""
"","","","","","instructions","3","1288374","0.0-3.0","32","1","2025-01-25 16:32:09","af8d355d56820e421d246a7037deb6e6","104.218.199.238","Mozilla/5.0 (Windows NT 10.0; Win64; x64) AppleWebKit/537.36 (KHTML, like Gecko) Chrome/127.0.0.0 Safari/537.36","WebKit","Chrome","127.0.0.0","Windows","10.0","https://app.prolific.com/","en-US,en;q=0.9","66986c9ad97d2e5ff07329c1","67949641171f97c04e14fb34","679511e1ed9c3a2d60180cae","[{""page_index"":0,""viewing_time"":2871},{""page_index"":1,""viewing_time"":1139},{""page_index"":2,""viewing_time"":391},{""page_index"":3,""viewing_time"":290},{""page_index"":4,""viewing_time"":241}]","4932","","","",""
"","","","","","html-button-response","4","1290893","0.0-4.0-0.0-0.0","32","1","2025-01-25 16:32:09","af8d355d56820e421d246a7037deb6e6","104.218.199.238","Mozilla/5.0 (Windows NT 10.0; Win64; x64) AppleWebKit/537.36 (KHTML, like Gecko) Chrome/127.0.0.0 Safari/537.36","WebKit","Chrome","127.0.0.0","Windows","10.0","https://app.prolific.com/","en-US,en;q=0.9","66986c9ad97d2e5ff07329c1","67949641171f97c04e14fb34","679511e1ed9c3a2d60180cae","","2515","","5","Intro Trial",""
"","","","","","html-keyboard-response","5","1292541","0.0-5.0","32","1","2025-01-25 16:32:09","af8d355d56820e421d246a7037deb6e6","104.218.199.238","Mozilla/5.0 (Windows NT 10.0; Win64; x64) AppleWebKit/537.36 (KHTML, like Gecko) Chrome/127.0.0.0 Safari/537.36","WebKit","Chrome","127.0.0.0","Windows","10.0","https://app.prolific.com/","en-US,en;q=0.9","66986c9ad97d2e5ff07329c1","67949641171f97c04e14fb34","679511e1ed9c3a2d60180cae","","1643","[""You sorted incorrectly by using the balance 0 times. <br><br> <img src='G_1.jpg' height='90'><img src='G_2.jpg' height='90'><img src='G_3.jpg' height='90'><img src='G_4.jpg' height='90'><img src='G_5.jpg' height='90'><br><br> Your final order is 4,2,3,5,1<br><br><br>Omgne Sort in this game will allow you to sort correctly by using the balance 8 times. Press Enter to learn it!""]","enter","",""
"","","","","","html-keyboard-response","6","1293574","0.0-6.0","32","1","2025-01-25 16:32:09","af8d355d56820e421d246a7037deb6e6","104.218.199.238","Mozilla/5.0 (Windows NT 10.0; Win64; x64) AppleWebKit/537.36 (KHTML, like Gecko) Chrome/127.0.0.0 Safari/537.36","WebKit","Chrome","127.0.0.0","Windows","10.0","https://app.prolific.com/","en-US,en;q=0.9","66986c9ad97d2e5ff07329c1","67949641171f97c04e14fb34","679511e1ed9c3a2d60180cae","","1032","<p>Welcome to the learning phase! <br><br> You will learn by six examples. The following learning trials will not be used to calculate your performance. <br><br> Press Enter to continue.<p/>","enter","",""
"","","","","","html-keyboard-response","7","1294616","0.0-7.0","32","1","2025-01-25 16:32:09","af8d355d56820e421d246a7037deb6e6","104.218.199.238","Mozilla/5.0 (Windows NT 10.0; Win64; x64) AppleWebKit/537.36 (KHTML, like Gecko) Chrome/127.0.0.0 Safari/537.36","WebKit","Chrome","127.0.0.0","Windows","10.0","https://app.prolific.com/","en-US,en;q=0.9","66986c9ad97d2e5ff07329c1","67949641171f97c04e14fb34","679511e1ed9c3a2d60180cae","","1041","[""Example 1<br><br>You will watch Omnge Sort in action. Try to identify any patterns in the comparisons made by this method. <br><br>Press Enter to continue.""]","enter","",""
"","","","","","html-keyboard-response","8","1295118","0.0-8.0","32","1","2025-01-25 16:32:09","af8d355d56820e421d246a7037deb6e6","104.218.199.238","Mozilla/5.0 (Windows NT 10.0; Win64; x64) AppleWebKit/537.36 (KHTML, like Gecko) Chrome/127.0.0.0 Safari/537.36","WebKit","Chrome","127.0.0.0","Windows","10.0","https://app.prolific.com/","en-US,en;q=0.9","66986c9ad97d2e5ff07329c1","67949641171f97c04e14fb34","679511e1ed9c3a2d60180cae","","null","<img id='selected' src='G_5.jpg' height='90'> <img src='G_7.jpg' height='90'> <img src='G_9.jpg' height='90'> <img src='G_1.jpg' height='90'> <img src='G_3.jpg' height='90'>","null","Animation0",""
"","","","","","html-keyboard-response","9","1295622","0.0-9.0","32","1","2025-01-25 16:32:09","af8d355d56820e421d246a7037deb6e6","104.218.199.238","Mozilla/5.0 (Windows NT 10.0; Win64; x64) AppleWebKit/537.36 (KHTML, like Gecko) Chrome/127.0.0.0 Safari/537.36","WebKit","Chrome","127.0.0.0","Windows","10.0","https://app.prolific.com/","en-US,en;q=0.9","66986c9ad97d2e5ff07329c1","67949641171f97c04e14fb34","679511e1ed9c3a2d60180cae","","null","<img id='selected' src='G_5.jpg' height='90'> <img id='selected' src='G_7.jpg' height='90'> <img src='G_9.jpg' height='90'> <img src='G_1.jpg' height='90'> <img src='G_3.jpg' height='90'>","null","Animation0",""
"","","","","","html-keyboard-response","10","1296126","0.0-10.0","32","1","2025-01-25 16:32:09","af8d355d56820e421d246a7037deb6e6","104.218.199.238","Mozilla/5.0 (Windows NT 10.0; Win64; x64) AppleWebKit/537.36 (KHTML, like Gecko) Chrome/127.0.0.0 Safari/537.36","WebKit","Chrome","127.0.0.0","Windows","10.0","https://app.prolific.com/","en-US,en;q=0.9","66986c9ad97d2e5ff07329c1","67949641171f97c04e14fb34","679511e1ed9c3a2d60180cae","","null","<img id='swapped' src='G_7.jpg' height='90'> <img id='swapped' src='G_5.jpg' height='90'> <img src='G_9.jpg' height='90'> <img src='G_1.jpg' height='90'> <img src='G_3.jpg' height='90'>","null","Animation0",""
"","","","","","html-keyboard-response","11","1296430","0.0-11.0","32","1","2025-01-25 16:32:09","af8d355d56820e421d246a7037deb6e6","104.218.199.238","Mozilla/5.0 (Windows NT 10.0; Win64; x64) AppleWebKit/537.36 (KHTML, like Gecko) Chrome/127.0.0.0 Safari/537.36","WebKit","Chrome","127.0.0.0","Windows","10.0","https://app.prolific.com/","en-US,en;q=0.9","66986c9ad97d2e5ff07329c1","67949641171f97c04e14fb34","679511e1ed9c3a2d60180cae","","null","<img  src='G_7.jpg' height='90'> <img  src='G_5.jpg' height='90'> <img src='G_9.jpg' height='90'> <img src='G_1.jpg' height='90'> <img src='G_3.jpg' height='90'>","null","Animation0",""
"","","","","","html-keyboard-response","12","1296933","0.0-12.0","32","1","2025-01-25 16:32:09","af8d355d56820e421d246a7037deb6e6","104.218.199.238","Mozilla/5.0 (Windows NT 10.0; Win64; x64) AppleWebKit/537.36 (KHTML, like Gecko) Chrome/127.0.0.0 Safari/537.36","WebKit","Chrome","127.0.0.0","Windows","10.0","https://app.prolific.com/","en-US,en;q=0.9","66986c9ad97d2e5ff07329c1","67949641171f97c04e14fb34","679511e1ed9c3a2d60180cae","","null","<img  src='G_7.jpg' height='90'> <img id='selected'  src='G_5.jpg' height='90'> <img src='G_9.jpg' height='90'> <img src='G_1.jpg' height='90'> <img src='G_3.jpg' height='90'>","null","Animation0",""
"","","","","","html-keyboard-response","13","1297436","0.0-13.0","32","1","2025-01-25 16:32:09","af8d355d56820e421d246a7037deb6e6","104.218.199.238","Mozilla/5.0 (Windows NT 10.0; Win64; x64) AppleWebKit/537.36 (KHTML, like Gecko) Chrome/127.0.0.0 Safari/537.36","WebKit","Chrome","127.0.0.0","Windows","10.0","https://app.prolific.com/","en-US,en;q=0.9","66986c9ad97d2e5ff07329c1","67949641171f97c04e14fb34","679511e1ed9c3a2d60180cae","","null","<img  src='G_7.jpg' height='90'> <img id='selected'  src='G_5.jpg' height='90'> <img id='selected' src='G_9.jpg' height='90'> <img src='G_1.jpg' height='90'> <img src='G_3.jpg' height='90'>","null","Animation0",""
"","","","","","html-keyboard-response","14","1297941","0.0-14.0","32","1","2025-01-25 16:32:09","af8d355d56820e421d246a7037deb6e6","104.218.199.238","Mozilla/5.0 (Windows NT 10.0; Win64; x64) AppleWebKit/537.36 (KHTML, like Gecko) Chrome/127.0.0.0 Safari/537.36","WebKit","Chrome","127.0.0.0","Windows","10.0","https://app.prolific.com/","en-US,en;q=0.9","66986c9ad97d2e5ff07329c1","67949641171f97c04e14fb34","679511e1ed9c3a2d60180cae","","null","<img  src='G_7.jpg' height='90'> <img id='selected'  src='G_5.jpg' height='90'> <img id='selected' src='G_9.jpg' height='90'> <img src='G_1.jpg' height='90'> <img src='G_3.jpg' height='90'>","null","Animation0",""
"","","","","","html-keyboard-response","15","1298244","0.0-15.0","32","1","2025-01-25 16:32:09","af8d355d56820e421d246a7037deb6e6","104.218.199.238","Mozilla/5.0 (Windows NT 10.0; Win64; x64) AppleWebKit/537.36 (KHTML, like Gecko) Chrome/127.0.0.0 Safari/537.36","WebKit","Chrome","127.0.0.0","Windows","10.0","https://app.prolific.com/","en-US,en;q=0.9","66986c9ad97d2e5ff07329c1","67949641171f97c04e14fb34","679511e1ed9c3a2d60180cae","","null","<img  src='G_7.jpg' height='90'> <img   src='G_5.jpg' height='90'> <img  src='G_9.jpg' height='90'> <img src='G_1.jpg' height='90'> <img src='G_3.jpg' height='90'>","null","Animation0",""
"","","","","","html-keyboard-response","16","1298857","0.0-16.0","32","1","2025-01-25 16:32:09","af8d355d56820e421d246a7037deb6e6","104.218.199.238","Mozilla/5.0 (Windows NT 10.0; Win64; x64) AppleWebKit/537.36 (KHTML, like Gecko) Chrome/127.0.0.0 Safari/537.36","WebKit","Chrome","127.0.0.0","Windows","10.0","https://app.prolific.com/","en-US,en;q=0.9","66986c9ad97d2e5ff07329c1","67949641171f97c04e14fb34","679511e1ed9c3a2d60180cae","","null","<img  src='G_7.jpg' height='90'> <img   src='G_5.jpg' height='90'> <img id='selected'  src='G_9.jpg' height='90'> <img src='G_1.jpg' height='90'> <img src='G_3.jpg' height='90'>","null","Animation0",""
"","","","","","html-keyboard-response","17","1299859","0.0-17.0","32","1","2025-01-25 16:32:09","af8d355d56820e421d246a7037deb6e6","104.218.199.238","Mozilla/5.0 (Windows NT 10.0; Win64; x64) AppleWebKit/537.36 (KHTML, like Gecko) Chrome/127.0.0.0 Safari/537.36","WebKit","Chrome","127.0.0.0","Windows","10.0","https://app.prolific.com/","en-US,en;q=0.9","66986c9ad97d2e5ff07329c1","67949641171f97c04e14fb34","679511e1ed9c3a2d60180cae","","null","<img  src='G_7.jpg' height='90'> <img   src='G_5.jpg' height='90'> <img id='selected'  src='G_9.jpg' height='90'> <img id='selected' src='G_1.jpg' height='90'> <img src='G_3.jpg' height='90'>","null","Animation0",""
"","","","","","html-keyboard-response","18","1300859","0.0-18.0","32","1","2025-01-25 16:32:09","af8d355d56820e421d246a7037deb6e6","104.218.199.238","Mozilla/5.0 (Windows NT 10.0; Win64; x64) AppleWebKit/537.36 (KHTML, like Gecko) Chrome/127.0.0.0 Safari/537.36","WebKit","Chrome","127.0.0.0","Windows","10.0","https://app.prolific.com/","en-US,en;q=0.9","66986c9ad97d2e5ff07329c1","67949641171f97c04e14fb34","679511e1ed9c3a2d60180cae","","null","<img  src='G_7.jpg' height='90'> <img   src='G_5.jpg' height='90'> <img id='selected'  src='G_9.jpg' height='90'> <img id='selected' src='G_1.jpg' height='90'> <img src='G_3.jpg' height='90'>","null","Animation0",""
"","","","","","html-keyboard-response","19","1301861","0.0-19.0","32","1","2025-01-25 16:32:09","af8d355d56820e421d246a7037deb6e6","104.218.199.238","Mozilla/5.0 (Windows NT 10.0; Win64; x64) AppleWebKit/537.36 (KHTML, like Gecko) Chrome/127.0.0.0 Safari/537.36","WebKit","Chrome","127.0.0.0","Windows","10.0","https://app.prolific.com/","en-US,en;q=0.9","66986c9ad97d2e5ff07329c1","67949641171f97c04e14fb34","679511e1ed9c3a2d60180cae","","null","<img  src='G_7.jpg' height='90'> <img   src='G_5.jpg' height='90'> <img   src='G_9.jpg' height='90'> <img  src='G_1.jpg' height='90'> <img src='G_3.jpg' height='90'>","null","Animation0",""
"","","","","","html-keyboard-response","20","1302857","0.0-20.0","32","1","2025-01-25 16:32:09","af8d355d56820e421d246a7037deb6e6","104.218.199.238","Mozilla/5.0 (Windows NT 10.0; Win64; x64) AppleWebKit/537.36 (KHTML, like Gecko) Chrome/127.0.0.0 Safari/537.36","WebKit","Chrome","127.0.0.0","Windows","10.0","https://app.prolific.com/","en-US,en;q=0.9","66986c9ad97d2e5ff07329c1","67949641171f97c04e14fb34","679511e1ed9c3a2d60180cae","","null","<img  src='G_7.jpg' height='90'> <img   src='G_5.jpg' height='90'> <img   src='G_9.jpg' height='90'> <img id='selected'  src='G_1.jpg' height='90'> <img src='G_3.jpg' height='90'>","null","Animation0",""
"","","","","","html-keyboard-response","21","1303857","0.0-21.0","32","1","2025-01-25 16:32:09","af8d355d56820e421d246a7037deb6e6","104.218.199.238","Mozilla/5.0 (Windows NT 10.0; Win64; x64) AppleWebKit/537.36 (KHTML, like Gecko) Chrome/127.0.0.0 Safari/537.36","WebKit","Chrome","127.0.0.0","Windows","10.0","https://app.prolific.com/","en-US,en;q=0.9","66986c9ad97d2e5ff07329c1","67949641171f97c04e14fb34","679511e1ed9c3a2d60180cae","","null","<img  src='G_7.jpg' height='90'> <img   src='G_5.jpg' height='90'> <img   src='G_9.jpg' height='90'> <img id='selected'  src='G_1.jpg' height='90'> <img id='selected' src='G_3.jpg' height='90'>","null","Animation0",""
"","","","","","html-keyboard-response","22","1304857","0.0-22.0","32","1","2025-01-25 16:32:09","af8d355d56820e421d246a7037deb6e6","104.218.199.238","Mozilla/5.0 (Windows NT 10.0; Win64; x64) AppleWebKit/537.36 (KHTML, like Gecko) Chrome/127.0.0.0 Safari/537.36","WebKit","Chrome","127.0.0.0","Windows","10.0","https://app.prolific.com/","en-US,en;q=0.9","66986c9ad97d2e5ff07329c1","67949641171f97c04e14fb34","679511e1ed9c3a2d60180cae","","null","<img  src='G_7.jpg' height='90'> <img   src='G_5.jpg' height='90'> <img   src='G_9.jpg' height='90'> <img id='selected'  src='G_1.jpg' height='90'> <img id='selected' src='G_3.jpg' height='90'>","null","Animation0",""
"","","","","","html-keyboard-response","23","1305857","0.0-23.0","32","1","2025-01-25 16:32:09","af8d355d56820e421d246a7037deb6e6","104.218.199.238","Mozilla/5.0 (Windows NT 10.0; Win64; x64) AppleWebKit/537.36 (KHTML, like Gecko) Chrome/127.0.0.0 Safari/537.36","WebKit","Chrome","127.0.0.0","Windows","10.0","https://app.prolific.com/","en-US,en;q=0.9","66986c9ad97d2e5ff07329c1","67949641171f97c04e14fb34","679511e1ed9c3a2d60180cae","","null","<img  src='G_7.jpg' height='90'> <img   src='G_5.jpg' height='90'> <img   src='G_9.jpg' height='90'> <img   src='G_1.jpg' height='90'> <img  src='G_3.jpg' height='90'>","null","Animation0",""
"","","","","","html-keyboard-response","24","1311302","0.0-24.0","32","1","2025-01-25 16:32:09","af8d355d56820e421d246a7037deb6e6","104.218.199.238","Mozilla/5.0 (Windows NT 10.0; Win64; x64) AppleWebKit/537.36 (KHTML, like Gecko) Chrome/127.0.0.0 Safari/537.36","WebKit","Chrome","127.0.0.0","Windows","10.0","https://app.prolific.com/","en-US,en;q=0.9","66986c9ad97d2e5ff07329c1","67949641171f97c04e14fb34","679511e1ed9c3a2d60180cae","","5443","[""Did you notice any patterns? <br><br>Press Enter to watch that example again and follow the steps of Omgne Sort.""]","enter","",""
"","","","","","html-button-response","25","1311705","0.0-25.0","32","1","2025-01-25 16:32:09","af8d355d56820e421d246a7037deb6e6","104.218.199.238","Mozilla/5.0 (Windows NT 10.0; Win64; x64) AppleWebKit/537.36 (KHTML, like Gecko) Chrome/127.0.0.0 Safari/537.36","WebKit","Chrome","127.0.0.0","Windows","10.0","https://app.prolific.com/","en-US,en;q=0.9","66986c9ad97d2e5ff07329c1","67949641171f97c04e14fb34","679511e1ed9c3a2d60180cae","","null","<img id='selected' src='G_5.jpg' height='90'> <img src='G_7.jpg' height='90'> <img src='G_9.jpg' height='90'> <img src='G_1.jpg' height='90'> <img src='G_3.jpg' height='90'>","null","Learning example 0",""
"","","","","","html-button-response","26","1312010","0.0-26.0","32","1","2025-01-25 16:32:09","af8d355d56820e421d246a7037deb6e6","104.218.199.238","Mozilla/5.0 (Windows NT 10.0; Win64; x64) AppleWebKit/537.36 (KHTML, like Gecko) Chrome/127.0.0.0 Safari/537.36","WebKit","Chrome","127.0.0.0","Windows","10.0","https://app.prolific.com/","en-US,en;q=0.9","66986c9ad97d2e5ff07329c1","67949641171f97c04e14fb34","679511e1ed9c3a2d60180cae","","null","<img id='selected' src='G_5.jpg' height='90'> <img id='selected' src='G_7.jpg' height='90'> <img src='G_9.jpg' height='90'> <img src='G_1.jpg' height='90'> <img src='G_3.jpg' height='90'>","null","Learning example 0",""
"","","","","","html-button-response","27","1312313","0.0-27.0","32","1","2025-01-25 16:32:09","af8d355d56820e421d246a7037deb6e6","104.218.199.238","Mozilla/5.0 (Windows NT 10.0; Win64; x64) AppleWebKit/537.36 (KHTML, like Gecko) Chrome/127.0.0.0 Safari/537.36","WebKit","Chrome","127.0.0.0","Windows","10.0","https://app.prolific.com/","en-US,en;q=0.9","66986c9ad97d2e5ff07329c1","67949641171f97c04e14fb34","679511e1ed9c3a2d60180cae","","null","<img id='swapped' src='G_7.jpg' height='90'> <img id='swapped' src='G_5.jpg' height='90'> <img src='G_9.jpg' height='90'> <img src='G_1.jpg' height='90'> <img src='G_3.jpg' height='90'>","null","Learning example 0",""
"","","","","","html-button-response","28","1331657","0.0-28.0-0.0-0.0","32","1","2025-01-25 16:32:09","af8d355d56820e421d246a7037deb6e6","104.218.199.238","Mozilla/5.0 (Windows NT 10.0; Win64; x64) AppleWebKit/537.36 (KHTML, like Gecko) Chrome/127.0.0.0 Safari/537.36","WebKit","Chrome","127.0.0.0","Windows","10.0","https://app.prolific.com/","en-US,en;q=0.9","66986c9ad97d2e5ff07329c1","67949641171f97c04e14fb34","679511e1ed9c3a2d60180cae","","19338","<img id='swapped' src='G_7.jpg' height='90'> <img id='swapped' src='G_5.jpg' height='90'> <img src='G_9.jpg' height='90'> <img src='G_1.jpg' height='90'> <img src='G_3.jpg' height='90'>","0","Learning example 0",""
"","","","","","html-button-response","29","1332142","0.0-28.1-0.1-0.1","32","1","2025-01-25 16:32:09","af8d355d56820e421d246a7037deb6e6","104.218.199.238","Mozilla/5.0 (Windows NT 10.0; Win64; x64) AppleWebKit/537.36 (KHTML, like Gecko) Chrome/127.0.0.0 Safari/537.36","WebKit","Chrome","127.0.0.0","Windows","10.0","https://app.prolific.com/","en-US,en;q=0.9","66986c9ad97d2e5ff07329c1","67949641171f97c04e14fb34","679511e1ed9c3a2d60180cae","","477","<img id='swapped' src='G_7.jpg' height='90'> <img id='swapped' src='G_5.jpg' height='90'> <img src='G_9.jpg' height='90'> <img src='G_1.jpg' height='90'> <img src='G_3.jpg' height='90'>","1","Learning example 0",""
"","","","","","html-button-response","30","1332349","0.0-29.0","32","1","2025-01-25 16:32:09","af8d355d56820e421d246a7037deb6e6","104.218.199.238","Mozilla/5.0 (Windows NT 10.0; Win64; x64) AppleWebKit/537.36 (KHTML, like Gecko) Chrome/127.0.0.0 Safari/537.36","WebKit","Chrome","127.0.0.0","Windows","10.0","https://app.prolific.com/","en-US,en;q=0.9","66986c9ad97d2e5ff07329c1","67949641171f97c04e14fb34","679511e1ed9c3a2d60180cae","","null","<img  src='G_7.jpg' height='90'> <img  src='G_5.jpg' height='90'> <img src='G_9.jpg' height='90'> <img src='G_1.jpg' height='90'> <img src='G_3.jpg' height='90'>","null","Learning example 0",""
"","","","","","html-button-response","31","1332755","0.0-30.0","32","1","2025-01-25 16:32:09","af8d355d56820e421d246a7037deb6e6","104.218.199.238","Mozilla/5.0 (Windows NT 10.0; Win64; x64) AppleWebKit/537.36 (KHTML, like Gecko) Chrome/127.0.0.0 Safari/537.36","WebKit","Chrome","127.0.0.0","Windows","10.0","https://app.prolific.com/","en-US,en;q=0.9","66986c9ad97d2e5ff07329c1","67949641171f97c04e14fb34","679511e1ed9c3a2d60180cae","","null","<img  src='G_7.jpg' height='90'> <img id='selected'  src='G_5.jpg' height='90'> <img src='G_9.jpg' height='90'> <img src='G_1.jpg' height='90'> <img src='G_3.jpg' height='90'>","null","Learning example 0",""
"","","","","","html-button-response","32","1333062","0.0-31.0","32","1","2025-01-25 16:32:09","af8d355d56820e421d246a7037deb6e6","104.218.199.238","Mozilla/5.0 (Windows NT 10.0; Win64; x64) AppleWebKit/537.36 (KHTML, like Gecko) Chrome/127.0.0.0 Safari/537.36","WebKit","Chrome","127.0.0.0","Windows","10.0","https://app.prolific.com/","en-US,en;q=0.9","66986c9ad97d2e5ff07329c1","67949641171f97c04e14fb34","679511e1ed9c3a2d60180cae","","null","<img  src='G_7.jpg' height='90'> <img id='selected'  src='G_5.jpg' height='90'> <img id='selected' src='G_9.jpg' height='90'> <img src='G_1.jpg' height='90'> <img src='G_3.jpg' height='90'>","null","Learning example 0",""
"","","","","","html-button-response","33","1333291","0.0-32.0","32","1","2025-01-25 16:32:09","af8d355d56820e421d246a7037deb6e6","104.218.199.238","Mozilla/5.0 (Windows NT 10.0; Win64; x64) AppleWebKit/537.36 (KHTML, like Gecko) Chrome/127.0.0.0 Safari/537.36","WebKit","Chrome","127.0.0.0","Windows","10.0","https://app.prolific.com/","en-US,en;q=0.9","66986c9ad97d2e5ff07329c1","67949641171f97c04e14fb34","679511e1ed9c3a2d60180cae","","223","<img  src='G_7.jpg' height='90'> <img id='selected'  src='G_5.jpg' height='90'> <img id='selected' src='G_9.jpg' height='90'> <img src='G_1.jpg' height='90'> <img src='G_3.jpg' height='90'>","1","Learning example 0",""
"","","","","","html-button-response","34","1334862","0.0-33.0-0.0-0.0","32","1","2025-01-25 16:32:09","af8d355d56820e421d246a7037deb6e6","104.218.199.238","Mozilla/5.0 (Windows NT 10.0; Win64; x64) AppleWebKit/537.36 (KHTML, like Gecko) Chrome/127.0.0.0 Safari/537.36","WebKit","Chrome","127.0.0.0","Windows","10.0","https://app.prolific.com/","en-US,en;q=0.9","66986c9ad97d2e5ff07329c1","67949641171f97c04e14fb34","679511e1ed9c3a2d60180cae","","1567","<img  src='G_7.jpg' height='90'> <img id='selected'  src='G_5.jpg' height='90'> <img id='selected' src='G_9.jpg' height='90'> <img src='G_1.jpg' height='90'> <img src='G_3.jpg' height='90'>","1","Learning example 0",""
"","","","","","html-button-response","35","1335406","0.0-33.1-0.1-0.1","32","1","2025-01-25 16:32:09","af8d355d56820e421d246a7037deb6e6","104.218.199.238","Mozilla/5.0 (Windows NT 10.0; Win64; x64) AppleWebKit/537.36 (KHTML, like Gecko) Chrome/127.0.0.0 Safari/537.36","WebKit","Chrome","127.0.0.0","Windows","10.0","https://app.prolific.com/","en-US,en;q=0.9","66986c9ad97d2e5ff07329c1","67949641171f97c04e14fb34","679511e1ed9c3a2d60180cae","","538","<img  src='G_7.jpg' height='90'> <img id='selected'  src='G_5.jpg' height='90'> <img id='selected' src='G_9.jpg' height='90'> <img src='G_1.jpg' height='90'> <img src='G_3.jpg' height='90'>","2","Learning example 0",""
"","","","","","html-button-response","36","1335614","0.0-34.0","32","1","2025-01-25 16:32:09","af8d355d56820e421d246a7037deb6e6","104.218.199.238","Mozilla/5.0 (Windows NT 10.0; Win64; x64) AppleWebKit/537.36 (KHTML, like Gecko) Chrome/127.0.0.0 Safari/537.36","WebKit","Chrome","127.0.0.0","Windows","10.0","https://app.prolific.com/","en-US,en;q=0.9","66986c9ad97d2e5ff07329c1","67949641171f97c04e14fb34","679511e1ed9c3a2d60180cae","","null","<img  src='G_7.jpg' height='90'> <img   src='G_5.jpg' height='90'> <img  src='G_9.jpg' height='90'> <img src='G_1.jpg' height='90'> <img src='G_3.jpg' height='90'>","null","Learning example 0",""
"","","","","","html-button-response","37","1336020","0.0-35.0","32","1","2025-01-25 16:32:09","af8d355d56820e421d246a7037deb6e6","104.218.199.238","Mozilla/5.0 (Windows NT 10.0; Win64; x64) AppleWebKit/537.36 (KHTML, like Gecko) Chrome/127.0.0.0 Safari/537.36","WebKit","Chrome","127.0.0.0","Windows","10.0","https://app.prolific.com/","en-US,en;q=0.9","66986c9ad97d2e5ff07329c1","67949641171f97c04e14fb34","679511e1ed9c3a2d60180cae","","null","<img  src='G_7.jpg' height='90'> <img   src='G_5.jpg' height='90'> <img id='selected'  src='G_9.jpg' height='90'> <img src='G_1.jpg' height='90'> <img src='G_3.jpg' height='90'>","null","Learning example 0",""
"","","","","","html-button-response","38","1336327","0.0-36.0","32","1","2025-01-25 16:32:09","af8d355d56820e421d246a7037deb6e6","104.218.199.238","Mozilla/5.0 (Windows NT 10.0; Win64; x64) AppleWebKit/537.36 (KHTML, like Gecko) Chrome/127.0.0.0 Safari/537.36","WebKit","Chrome","127.0.0.0","Windows","10.0","https://app.prolific.com/","en-US,en;q=0.9","66986c9ad97d2e5ff07329c1","67949641171f97c04e14fb34","679511e1ed9c3a2d60180cae","","null","<img  src='G_7.jpg' height='90'> <img   src='G_5.jpg' height='90'> <img id='selected'  src='G_9.jpg' height='90'> <img id='selected' src='G_1.jpg' height='90'> <img src='G_3.jpg' height='90'>","null","Learning example 0",""
"","","","","","html-button-response","39","1336588","0.0-37.0","32","1","2025-01-25 16:32:09","af8d355d56820e421d246a7037deb6e6","104.218.199.238","Mozilla/5.0 (Windows NT 10.0; Win64; x64) AppleWebKit/537.36 (KHTML, like Gecko) Chrome/127.0.0.0 Safari/537.36","WebKit","Chrome","127.0.0.0","Windows","10.0","https://app.prolific.com/","en-US,en;q=0.9","66986c9ad97d2e5ff07329c1","67949641171f97c04e14fb34","679511e1ed9c3a2d60180cae","","255","<img  src='G_7.jpg' height='90'> <img   src='G_5.jpg' height='90'> <img id='selected'  src='G_9.jpg' height='90'> <img id='selected' src='G_1.jpg' height='90'> <img src='G_3.jpg' height='90'>","2","Learning example 0",""
"","","","","","html-button-response","40","1337328","0.0-38.0-0.0-0.0","32","1","2025-01-25 16:32:09","af8d355d56820e421d246a7037deb6e6","104.218.199.238","Mozilla/5.0 (Windows NT 10.0; Win64; x64) AppleWebKit/537.36 (KHTML, like Gecko) Chrome/127.0.0.0 Safari/537.36","WebKit","Chrome","127.0.0.0","Windows","10.0","https://app.prolific.com/","en-US,en;q=0.9","66986c9ad97d2e5ff07329c1","67949641171f97c04e14fb34","679511e1ed9c3a2d60180cae","","732","<img  src='G_7.jpg' height='90'> <img   src='G_5.jpg' height='90'> <img id='selected'  src='G_9.jpg' height='90'> <img id='selected' src='G_1.jpg' height='90'> <img src='G_3.jpg' height='90'>","2","Learning example 0",""
"","","","","","html-button-response","41","1337832","0.0-38.1-0.1-0.1","32","1","2025-01-25 16:32:09","af8d355d56820e421d246a7037deb6e6","104.218.199.238","Mozilla/5.0 (Windows NT 10.0; Win64; x64) AppleWebKit/537.36 (KHTML, like Gecko) Chrome/127.0.0.0 Safari/537.36","WebKit","Chrome","127.0.0.0","Windows","10.0","https://app.prolific.com/","en-US,en;q=0.9","66986c9ad97d2e5ff07329c1","67949641171f97c04e14fb34","679511e1ed9c3a2d60180cae","","497","<img  src='G_7.jpg' height='90'> <img   src='G_5.jpg' height='90'> <img id='selected'  src='G_9.jpg' height='90'> <img id='selected' src='G_1.jpg' height='90'> <img src='G_3.jpg' height='90'>","3","Learning example 0",""
"","","","","","html-button-response","42","1338038","0.0-39.0","32","1","2025-01-25 16:32:09","af8d355d56820e421d246a7037deb6e6","104.218.199.238","Mozilla/5.0 (Windows NT 10.0; Win64; x64) AppleWebKit/537.36 (KHTML, like Gecko) Chrome/127.0.0.0 Safari/537.36","WebKit","Chrome","127.0.0.0","Windows","10.0","https://app.prolific.com/","en-US,en;q=0.9","66986c9ad97d2e5ff07329c1","67949641171f97c04e14fb34","679511e1ed9c3a2d60180cae","","null","<img  src='G_7.jpg' height='90'> <img   src='G_5.jpg' height='90'> <img   src='G_9.jpg' height='90'> <img  src='G_1.jpg' height='90'> <img src='G_3.jpg' height='90'>","null","Learning example 0",""
"","","","","","html-button-response","43","1338441","0.0-40.0","32","1","2025-01-25 16:32:09","af8d355d56820e421d246a7037deb6e6","104.218.199.238","Mozilla/5.0 (Windows NT 10.0; Win64; x64) AppleWebKit/537.36 (KHTML, like Gecko) Chrome/127.0.0.0 Safari/537.36","WebKit","Chrome","127.0.0.0","Windows","10.0","https://app.prolific.com/","en-US,en;q=0.9","66986c9ad97d2e5ff07329c1","67949641171f97c04e14fb34","679511e1ed9c3a2d60180cae","","null","<img  src='G_7.jpg' height='90'> <img   src='G_5.jpg' height='90'> <img   src='G_9.jpg' height='90'> <img id='selected'  src='G_1.jpg' height='90'> <img src='G_3.jpg' height='90'>","null","Learning example 0",""
"","","","","","html-button-response","44","1338686","0.0-41.0","32","1","2025-01-25 16:32:09","af8d355d56820e421d246a7037deb6e6","104.218.199.238","Mozilla/5.0 (Windows NT 10.0; Win64; x64) AppleWebKit/537.36 (KHTML, like Gecko) Chrome/127.0.0.0 Safari/537.36","WebKit","Chrome","127.0.0.0","Windows","10.0","https://app.prolific.com/","en-US,en;q=0.9","66986c9ad97d2e5ff07329c1","67949641171f97c04e14fb34","679511e1ed9c3a2d60180cae","","239","<img  src='G_7.jpg' height='90'> <img   src='G_5.jpg' height='90'> <img   src='G_9.jpg' height='90'> <img id='selected'  src='G_1.jpg' height='90'> <img id='selected' src='G_3.jpg' height='90'>","3","Learning example 0",""
"","","","","","html-button-response","45","1338993","0.0-42.0","32","1","2025-01-25 16:32:09","af8d355d56820e421d246a7037deb6e6","104.218.199.238","Mozilla/5.0 (Windows NT 10.0; Win64; x64) AppleWebKit/537.36 (KHTML, like Gecko) Chrome/127.0.0.0 Safari/537.36","WebKit","Chrome","127.0.0.0","Windows","10.0","https://app.prolific.com/","en-US,en;q=0.9","66986c9ad97d2e5ff07329c1","67949641171f97c04e14fb34","679511e1ed9c3a2d60180cae","","null","<img  src='G_7.jpg' height='90'> <img   src='G_5.jpg' height='90'> <img   src='G_9.jpg' height='90'> <img id='selected'  src='G_1.jpg' height='90'> <img id='selected' src='G_3.jpg' height='90'>","null","Learning example 0",""
"","","","","","html-button-response","46","1339378","0.0-43.0-0.0-0.0","32","1","2025-01-25 16:32:09","af8d355d56820e421d246a7037deb6e6","104.218.199.238","Mozilla/5.0 (Windows NT 10.0; Win64; x64) AppleWebKit/537.36 (KHTML, like Gecko) Chrome/127.0.0.0 Safari/537.36","WebKit","Chrome","127.0.0.0","Windows","10.0","https://app.prolific.com/","en-US,en;q=0.9","66986c9ad97d2e5ff07329c1","67949641171f97c04e14fb34","679511e1ed9c3a2d60180cae","","380","<img  src='G_7.jpg' height='90'> <img   src='G_5.jpg' height='90'> <img   src='G_9.jpg' height='90'> <img id='selected'  src='G_1.jpg' height='90'> <img id='selected' src='G_3.jpg' height='90'>","3","Learning example 0",""
"","","","","","html-button-response","47","1339910","0.0-43.1-0.1-0.1","32","1","2025-01-25 16:32:09","af8d355d56820e421d246a7037deb6e6","104.218.199.238","Mozilla/5.0 (Windows NT 10.0; Win64; x64) AppleWebKit/537.36 (KHTML, like Gecko) Chrome/127.0.0.0 Safari/537.36","WebKit","Chrome","127.0.0.0","Windows","10.0","https://app.prolific.com/","en-US,en;q=0.9","66986c9ad97d2e5ff07329c1","67949641171f97c04e14fb34","679511e1ed9c3a2d60180cae","","524","<img  src='G_7.jpg' height='90'> <img   src='G_5.jpg' height='90'> <img   src='G_9.jpg' height='90'> <img id='selected'  src='G_1.jpg' height='90'> <img id='selected' src='G_3.jpg' height='90'>","4","Learning example 0",""
"","","","","","html-button-response","48","1340117","0.0-44.0","32","1","2025-01-25 16:32:09","af8d355d56820e421d246a7037deb6e6","104.218.199.238","Mozilla/5.0 (Windows NT 10.0; Win64; x64) AppleWebKit/537.36 (KHTML, like Gecko) Chrome/127.0.0.0 Safari/537.36","WebKit","Chrome","127.0.0.0","Windows","10.0","https://app.prolific.com/","en-US,en;q=0.9","66986c9ad97d2e5ff07329c1","67949641171f97c04e14fb34","679511e1ed9c3a2d60180cae","","null","<img  src='G_7.jpg' height='90'> <img   src='G_5.jpg' height='90'> <img   src='G_9.jpg' height='90'> <img   src='G_1.jpg' height='90'> <img  src='G_3.jpg' height='90'>","null","Learning example 0",""
"","","","","","html-keyboard-response","49","1341825","0.0-45.0","32","1","2025-01-25 16:32:09","af8d355d56820e421d246a7037deb6e6","104.218.199.238","Mozilla/5.0 (Windows NT 10.0; Win64; x64) AppleWebKit/537.36 (KHTML, like Gecko) Chrome/127.0.0.0 Safari/537.36","WebKit","Chrome","127.0.0.0","Windows","10.0","https://app.prolific.com/","en-US,en;q=0.9","66986c9ad97d2e5ff07329c1","67949641171f97c04e14fb34","679511e1ed9c3a2d60180cae","","1704","[""Final order was 1,2,3,4,5. The initial order was 2,1,3,4,5.<br>It took 1 swaps to sort it correctly with Omgne Sort. <br><br>Press Enter to continue.""]","enter","",""
"","","","","","html-keyboard-response","50","1342383","0.0-46.0","32","1","2025-01-25 16:32:09","af8d355d56820e421d246a7037deb6e6","104.218.199.238","Mozilla/5.0 (Windows NT 10.0; Win64; x64) AppleWebKit/537.36 (KHTML, like Gecko) Chrome/127.0.0.0 Safari/537.36","WebKit","Chrome","127.0.0.0","Windows","10.0","https://app.prolific.com/","en-US,en;q=0.9","66986c9ad97d2e5ff07329c1","67949641171f97c04e14fb34","679511e1ed9c3a2d60180cae","","556","[""Example 2<br><br>You will watch Omnge Sort in action. Try to identify any patterns in the comparisons made by this method. <br><br>Press Enter to continue.""]","enter","",""
"","","","","","html-keyboard-response","51","1342886","0.0-47.0","32","1","2025-01-25 16:32:09","af8d355d56820e421d246a7037deb6e6","104.218.199.238","Mozilla/5.0 (Windows NT 10.0; Win64; x64) AppleWebKit/537.36 (KHTML, like Gecko) Chrome/127.0.0.0 Safari/537.36","WebKit","Chrome","127.0.0.0","Windows","10.0","https://app.prolific.com/","en-US,en;q=0.9","66986c9ad97d2e5ff07329c1","67949641171f97c04e14fb34","679511e1ed9c3a2d60180cae","","null","<img id='selected' src='G_8.jpg' height='90'> <img src='G_2.jpg' height='90'> <img src='G_5.jpg' height='90'> <img src='G_1.jpg' height='90'> <img src='G_4.jpg' height='90'> <img src='G_3.jpg' height='90'> <img src='G_6.jpg' height='90'> <img src='G_7.jpg' height='90'>","null","Animation1",""
"","","","","","html-keyboard-response","52","1343393","0.0-48.0","32","1","2025-01-25 16:32:09","af8d355d56820e421d246a7037deb6e6","104.218.199.238","Mozilla/5.0 (Windows NT 10.0; Win64; x64) AppleWebKit/537.36 (KHTML, like Gecko) Chrome/127.0.0.0 Safari/537.36","WebKit","Chrome","127.0.0.0","Windows","10.0","https://app.prolific.com/","en-US,en;q=0.9","66986c9ad97d2e5ff07329c1","67949641171f97c04e14fb34","679511e1ed9c3a2d60180cae","","null","<img id='selected' src='G_8.jpg' height='90'> <img id='selected' src='G_2.jpg' height='90'> <img src='G_5.jpg' height='90'> <img src='G_1.jpg' height='90'> <img src='G_4.jpg' height='90'> <img src='G_3.jpg' height='90'> <img src='G_6.jpg' height='90'> <img src='G_7.jpg' height='90'>","null","Animation1",""
"","","","","","html-keyboard-response","53","1343900","0.0-49.0","32","1","2025-01-25 16:32:09","af8d355d56820e421d246a7037deb6e6","104.218.199.238","Mozilla/5.0 (Windows NT 10.0; Win64; x64) AppleWebKit/537.36 (KHTML, like Gecko) Chrome/127.0.0.0 Safari/537.36","WebKit","Chrome","127.0.0.0","Windows","10.0","https://app.prolific.com/","en-US,en;q=0.9","66986c9ad97d2e5ff07329c1","67949641171f97c04e14fb34","679511e1ed9c3a2d60180cae","","null","<img id='selected' src='G_8.jpg' height='90'> <img id='selected' src='G_2.jpg' height='90'> <img src='G_5.jpg' height='90'> <img src='G_1.jpg' height='90'> <img src='G_4.jpg' height='90'> <img src='G_3.jpg' height='90'> <img src='G_6.jpg' height='90'> <img src='G_7.jpg' height='90'>","null","Animation1",""
"","","","","","html-keyboard-response","54","1344208","0.0-50.0","32","1","2025-01-25 16:32:09","af8d355d56820e421d246a7037deb6e6","104.218.199.238","Mozilla/5.0 (Windows NT 10.0; Win64; x64) AppleWebKit/537.36 (KHTML, like Gecko) Chrome/127.0.0.0 Safari/537.36","WebKit","Chrome","127.0.0.0","Windows","10.0","https://app.prolific.com/","en-US,en;q=0.9","66986c9ad97d2e5ff07329c1","67949641171f97c04e14fb34","679511e1ed9c3a2d60180cae","","null","<img  src='G_8.jpg' height='90'> <img  src='G_2.jpg' height='90'> <img src='G_5.jpg' height='90'> <img src='G_1.jpg' height='90'> <img src='G_4.jpg' height='90'> <img src='G_3.jpg' height='90'> <img src='G_6.jpg' height='90'> <img src='G_7.jpg' height='90'>","null","Animation1",""
"","","","","","html-keyboard-response","55","1344714","0.0-51.0","32","1","2025-01-25 16:32:09","af8d355d56820e421d246a7037deb6e6","104.218.199.238","Mozilla/5.0 (Windows NT 10.0; Win64; x64) AppleWebKit/537.36 (KHTML, like Gecko) Chrome/127.0.0.0 Safari/537.36","WebKit","Chrome","127.0.0.0","Windows","10.0","https://app.prolific.com/","en-US,en;q=0.9","66986c9ad97d2e5ff07329c1","67949641171f97c04e14fb34","679511e1ed9c3a2d60180cae","","null","<img  src='G_8.jpg' height='90'> <img id='selected'  src='G_2.jpg' height='90'> <img src='G_5.jpg' height='90'> <img src='G_1.jpg' height='90'> <img src='G_4.jpg' height='90'> <img src='G_3.jpg' height='90'> <img src='G_6.jpg' height='90'> <img src='G_7.jpg' height='90'>","null","Animation1",""
"","","","","","html-keyboard-response","56","1345220","0.0-52.0","32","1","2025-01-25 16:32:09","af8d355d56820e421d246a7037deb6e6","104.218.199.238","Mozilla/5.0 (Windows NT 10.0; Win64; x64) AppleWebKit/537.36 (KHTML, like Gecko) Chrome/127.0.0.0 Safari/537.36","WebKit","Chrome","127.0.0.0","Windows","10.0","https://app.prolific.com/","en-US,en;q=0.9","66986c9ad97d2e5ff07329c1","67949641171f97c04e14fb34","679511e1ed9c3a2d60180cae","","null","<img  src='G_8.jpg' height='90'> <img id='selected'  src='G_2.jpg' height='90'> <img id='selected' src='G_5.jpg' height='90'> <img src='G_1.jpg' height='90'> <img src='G_4.jpg' height='90'> <img src='G_3.jpg' height='90'> <img src='G_6.jpg' height='90'> <img src='G_7.jpg' height='90'>","null","Animation1",""
"","","","","","html-keyboard-response","57","1345727","0.0-53.0","32","1","2025-01-25 16:32:09","af8d355d56820e421d246a7037deb6e6","104.218.199.238","Mozilla/5.0 (Windows NT 10.0; Win64; x64) AppleWebKit/537.36 (KHTML, like Gecko) Chrome/127.0.0.0 Safari/537.36","WebKit","Chrome","127.0.0.0","Windows","10.0","https://app.prolific.com/","en-US,en;q=0.9","66986c9ad97d2e5ff07329c1","67949641171f97c04e14fb34","679511e1ed9c3a2d60180cae","","null","<img  src='G_8.jpg' height='90'> <img id='swapped' src='G_5.jpg' height='90'> <img id='swapped'  src='G_2.jpg' height='90'> <img src='G_1.jpg' height='90'> <img src='G_4.jpg' height='90'> <img src='G_3.jpg' height='90'> <img src='G_6.jpg' height='90'> <img src='G_7.jpg' height='90'>","null","Animation1",""
"","","","","","html-keyboard-response","58","1346033","0.0-54.0","32","1","2025-01-25 16:32:09","af8d355d56820e421d246a7037deb6e6","104.218.199.238","Mozilla/5.0 (Windows NT 10.0; Win64; x64) AppleWebKit/537.36 (KHTML, like Gecko) Chrome/127.0.0.0 Safari/537.36","WebKit","Chrome","127.0.0.0","Windows","10.0","https://app.prolific.com/","en-US,en;q=0.9","66986c9ad97d2e5ff07329c1","67949641171f97c04e14fb34","679511e1ed9c3a2d60180cae","","null","<img  src='G_8.jpg' height='90'> <img  src='G_5.jpg' height='90'> <img   src='G_2.jpg' height='90'> <img src='G_1.jpg' height='90'> <img src='G_4.jpg' height='90'> <img src='G_3.jpg' height='90'> <img src='G_6.jpg' height='90'> <img src='G_7.jpg' height='90'>","null","Animation1",""
"","","","","","html-keyboard-response","59","1346537","0.0-55.0","32","1","2025-01-25 16:32:09","af8d355d56820e421d246a7037deb6e6","104.218.199.238","Mozilla/5.0 (Windows NT 10.0; Win64; x64) AppleWebKit/537.36 (KHTML, like Gecko) Chrome/127.0.0.0 Safari/537.36","WebKit","Chrome","127.0.0.0","Windows","10.0","https://app.prolific.com/","en-US,en;q=0.9","66986c9ad97d2e5ff07329c1","67949641171f97c04e14fb34","679511e1ed9c3a2d60180cae","","null","<img id='selected'  src='G_8.jpg' height='90'> <img  src='G_5.jpg' height='90'> <img   src='G_2.jpg' height='90'> <img src='G_1.jpg' height='90'> <img src='G_4.jpg' height='90'> <img src='G_3.jpg' height='90'> <img src='G_6.jpg' height='90'> <img src='G_7.jpg' height='90'>","null","Animation1",""
"","","","","","html-keyboard-response","60","1347043","0.0-56.0","32","1","2025-01-25 16:32:09","af8d355d56820e421d246a7037deb6e6","104.218.199.238","Mozilla/5.0 (Windows NT 10.0; Win64; x64) AppleWebKit/537.36 (KHTML, like Gecko) Chrome/127.0.0.0 Safari/537.36","WebKit","Chrome","127.0.0.0","Windows","10.0","https://app.prolific.com/","en-US,en;q=0.9","66986c9ad97d2e5ff07329c1","67949641171f97c04e14fb34","679511e1ed9c3a2d60180cae","","null","<img id='selected'  src='G_8.jpg' height='90'> <img id='selected'  src='G_5.jpg' height='90'> <img   src='G_2.jpg' height='90'> <img src='G_1.jpg' height='90'> <img src='G_4.jpg' height='90'> <img src='G_3.jpg' height='90'> <img src='G_6.jpg' height='90'> <img src='G_7.jpg' height='90'>","null","Animation1",""
"","","","","","html-keyboard-response","61","1347548","0.0-57.0","32","1","2025-01-25 16:32:09","af8d355d56820e421d246a7037deb6e6","104.218.199.238","Mozilla/5.0 (Windows NT 10.0; Win64; x64) AppleWebKit/537.36 (KHTML, like Gecko) Chrome/127.0.0.0 Safari/537.36","WebKit","Chrome","127.0.0.0","Windows","10.0","https://app.prolific.com/","en-US,en;q=0.9","66986c9ad97d2e5ff07329c1","67949641171f97c04e14fb34","679511e1ed9c3a2d60180cae","","null","<img id='swapped'  src='G_5.jpg' height='90'> <img id='swapped'  src='G_8.jpg' height='90'> <img   src='G_2.jpg' height='90'> <img src='G_1.jpg' height='90'> <img src='G_4.jpg' height='90'> <img src='G_3.jpg' height='90'> <img src='G_6.jpg' height='90'> <img src='G_7.jpg' height='90'>","null","Animation1",""
"","","","","","html-keyboard-response","62","1347859","0.0-58.0","32","1","2025-01-25 16:32:09","af8d355d56820e421d246a7037deb6e6","104.218.199.238","Mozilla/5.0 (Windows NT 10.0; Win64; x64) AppleWebKit/537.36 (KHTML, like Gecko) Chrome/127.0.0.0 Safari/537.36","WebKit","Chrome","127.0.0.0","Windows","10.0","https://app.prolific.com/","en-US,en;q=0.9","66986c9ad97d2e5ff07329c1","67949641171f97c04e14fb34","679511e1ed9c3a2d60180cae","","null","<img   src='G_5.jpg' height='90'> <img   src='G_8.jpg' height='90'> <img   src='G_2.jpg' height='90'> <img src='G_1.jpg' height='90'> <img src='G_4.jpg' height='90'> <img src='G_3.jpg' height='90'> <img src='G_6.jpg' height='90'> <img src='G_7.jpg' height='90'>","null","Animation1",""
"","","","","","html-keyboard-response","63","1348857","0.0-59.0","32","1","2025-01-25 16:32:09","af8d355d56820e421d246a7037deb6e6","104.218.199.238","Mozilla/5.0 (Windows NT 10.0; Win64; x64) AppleWebKit/537.36 (KHTML, like Gecko) Chrome/127.0.0.0 Safari/537.36","WebKit","Chrome","127.0.0.0","Windows","10.0","https://app.prolific.com/","en-US,en;q=0.9","66986c9ad97d2e5ff07329c1","67949641171f97c04e14fb34","679511e1ed9c3a2d60180cae","","null","<img   src='G_5.jpg' height='90'> <img   src='G_8.jpg' height='90'> <img id='selected'   src='G_2.jpg' height='90'> <img src='G_1.jpg' height='90'> <img src='G_4.jpg' height='90'> <img src='G_3.jpg' height='90'> <img src='G_6.jpg' height='90'> <img src='G_7.jpg' height='90'>","null","Animation1",""
"","","","","","html-keyboard-response","64","1349368","0.0-60.0","32","1","2025-01-25 16:32:09","af8d355d56820e421d246a7037deb6e6","104.218.199.238","Mozilla/5.0 (Windows NT 10.0; Win64; x64) AppleWebKit/537.36 (KHTML, like Gecko) Chrome/127.0.0.0 Safari/537.36","WebKit","Chrome","127.0.0.0","Windows","10.0","https://app.prolific.com/","en-US,en;q=0.9","66986c9ad97d2e5ff07329c1","67949641171f97c04e14fb34","679511e1ed9c3a2d60180cae","","null","<img   src='G_5.jpg' height='90'> <img   src='G_8.jpg' height='90'> <img id='selected'   src='G_2.jpg' height='90'> <img id='selected' src='G_1.jpg' height='90'> <img src='G_4.jpg' height='90'> <img src='G_3.jpg' height='90'> <img src='G_6.jpg' height='90'> <img src='G_7.jpg' height='90'>","null","Animation1",""
"","","","","","html-keyboard-response","65","1349872","0.0-61.0","32","1","2025-01-25 16:32:09","af8d355d56820e421d246a7037deb6e6","104.218.199.238","Mozilla/5.0 (Windows NT 10.0; Win64; x64) AppleWebKit/537.36 (KHTML, like Gecko) Chrome/127.0.0.0 Safari/537.36","WebKit","Chrome","127.0.0.0","Windows","10.0","https://app.prolific.com/","en-US,en;q=0.9","66986c9ad97d2e5ff07329c1","67949641171f97c04e14fb34","679511e1ed9c3a2d60180cae","","null","<img   src='G_5.jpg' height='90'> <img   src='G_8.jpg' height='90'> <img id='swapped' src='G_1.jpg' height='90'> <img id='swapped'   src='G_2.jpg' height='90'> <img src='G_4.jpg' height='90'> <img src='G_3.jpg' height='90'> <img src='G_6.jpg' height='90'> <img src='G_7.jpg' height='90'>","null","Animation1",""
"","","","","","html-keyboard-response","66","1350178","0.0-62.0","32","1","2025-01-25 16:32:09","af8d355d56820e421d246a7037deb6e6","104.218.199.238","Mozilla/5.0 (Windows NT 10.0; Win64; x64) AppleWebKit/537.36 (KHTML, like Gecko) Chrome/127.0.0.0 Safari/537.36","WebKit","Chrome","127.0.0.0","Windows","10.0","https://app.prolific.com/","en-US,en;q=0.9","66986c9ad97d2e5ff07329c1","67949641171f97c04e14fb34","679511e1ed9c3a2d60180cae","","null","<img   src='G_5.jpg' height='90'> <img   src='G_8.jpg' height='90'> <img  src='G_1.jpg' height='90'> <img    src='G_2.jpg' height='90'> <img src='G_4.jpg' height='90'> <img src='G_3.jpg' height='90'> <img src='G_6.jpg' height='90'> <img src='G_7.jpg' height='90'>","null","Animation1",""
"","","","","","html-keyboard-response","67","1350684","0.0-63.0","32","1","2025-01-25 16:32:09","af8d355d56820e421d246a7037deb6e6","104.218.199.238","Mozilla/5.0 (Windows NT 10.0; Win64; x64) AppleWebKit/537.36 (KHTML, like Gecko) Chrome/127.0.0.0 Safari/537.36","WebKit","Chrome","127.0.0.0","Windows","10.0","https://app.prolific.com/","en-US,en;q=0.9","66986c9ad97d2e5ff07329c1","67949641171f97c04e14fb34","679511e1ed9c3a2d60180cae","","null","<img   src='G_5.jpg' height='90'> <img id='selected'   src='G_8.jpg' height='90'> <img  src='G_1.jpg' height='90'> <img    src='G_2.jpg' height='90'> <img src='G_4.jpg' height='90'> <img src='G_3.jpg' height='90'> <img src='G_6.jpg' height='90'> <img src='G_7.jpg' height='90'>","null","Animation1",""
"","","","","","html-keyboard-response","68","1351191","0.0-64.0","32","1","2025-01-25 16:32:09","af8d355d56820e421d246a7037deb6e6","104.218.199.238","Mozilla/5.0 (Windows NT 10.0; Win64; x64) AppleWebKit/537.36 (KHTML, like Gecko) Chrome/127.0.0.0 Safari/537.36","WebKit","Chrome","127.0.0.0","Windows","10.0","https://app.prolific.com/","en-US,en;q=0.9","66986c9ad97d2e5ff07329c1","67949641171f97c04e14fb34","679511e1ed9c3a2d60180cae","","null","<img   src='G_5.jpg' height='90'> <img id='selected'   src='G_8.jpg' height='90'> <img id='selected'  src='G_1.jpg' height='90'> <img    src='G_2.jpg' height='90'> <img src='G_4.jpg' height='90'> <img src='G_3.jpg' height='90'> <img src='G_6.jpg' height='90'> <img src='G_7.jpg' height='90'>","null","Animation1",""
"","","","","","html-keyboard-response","69","1351697","0.0-65.0","32","1","2025-01-25 16:32:09","af8d355d56820e421d246a7037deb6e6","104.218.199.238","Mozilla/5.0 (Windows NT 10.0; Win64; x64) AppleWebKit/537.36 (KHTML, like Gecko) Chrome/127.0.0.0 Safari/537.36","WebKit","Chrome","127.0.0.0","Windows","10.0","https://app.prolific.com/","en-US,en;q=0.9","66986c9ad97d2e5ff07329c1","67949641171f97c04e14fb34","679511e1ed9c3a2d60180cae","","null","<img   src='G_5.jpg' height='90'> <img id='swapped'  src='G_1.jpg' height='90'> <img id='swapped'   src='G_8.jpg' height='90'> <img    src='G_2.jpg' height='90'> <img src='G_4.jpg' height='90'> <img src='G_3.jpg' height='90'> <img src='G_6.jpg' height='90'> <img src='G_7.jpg' height='90'>","null","Animation1",""
"","","","","","html-keyboard-response","70","1352004","0.0-66.0","32","1","2025-01-25 16:32:09","af8d355d56820e421d246a7037deb6e6","104.218.199.238","Mozilla/5.0 (Windows NT 10.0; Win64; x64) AppleWebKit/537.36 (KHTML, like Gecko) Chrome/127.0.0.0 Safari/537.36","WebKit","Chrome","127.0.0.0","Windows","10.0","https://app.prolific.com/","en-US,en;q=0.9","66986c9ad97d2e5ff07329c1","67949641171f97c04e14fb34","679511e1ed9c3a2d60180cae","","null","<img   src='G_5.jpg' height='90'> <img   src='G_1.jpg' height='90'> <img    src='G_8.jpg' height='90'> <img    src='G_2.jpg' height='90'> <img src='G_4.jpg' height='90'> <img src='G_3.jpg' height='90'> <img src='G_6.jpg' height='90'> <img src='G_7.jpg' height='90'>","null","Animation1",""
"","","","","","html-keyboard-response","71","1352857","0.0-67.0","32","1","2025-01-25 16:32:09","af8d355d56820e421d246a7037deb6e6","104.218.199.238","Mozilla/5.0 (Windows NT 10.0; Win64; x64) AppleWebKit/537.36 (KHTML, like Gecko) Chrome/127.0.0.0 Safari/537.36","WebKit","Chrome","127.0.0.0","Windows","10.0","https://app.prolific.com/","en-US,en;q=0.9","66986c9ad97d2e5ff07329c1","67949641171f97c04e14fb34","679511e1ed9c3a2d60180cae","","null","<img id='selected'   src='G_5.jpg' height='90'> <img   src='G_1.jpg' height='90'> <img    src='G_8.jpg' height='90'> <img    src='G_2.jpg' height='90'> <img src='G_4.jpg' height='90'> <img src='G_3.jpg' height='90'> <img src='G_6.jpg' height='90'> <img src='G_7.jpg' height='90'>","null","Animation1",""
"","","","","","html-keyboard-response","72","1353857","0.0-68.0","32","1","2025-01-25 16:32:09","af8d355d56820e421d246a7037deb6e6","104.218.199.238","Mozilla/5.0 (Windows NT 10.0; Win64; x64) AppleWebKit/537.36 (KHTML, like Gecko) Chrome/127.0.0.0 Safari/537.36","WebKit","Chrome","127.0.0.0","Windows","10.0","https://app.prolific.com/","en-US,en;q=0.9","66986c9ad97d2e5ff07329c1","67949641171f97c04e14fb34","679511e1ed9c3a2d60180cae","","null","<img id='selected'   src='G_5.jpg' height='90'> <img id='selected'   src='G_1.jpg' height='90'> <img    src='G_8.jpg' height='90'> <img    src='G_2.jpg' height='90'> <img src='G_4.jpg' height='90'> <img src='G_3.jpg' height='90'> <img src='G_6.jpg' height='90'> <img src='G_7.jpg' height='90'>","null","Animation1",""
"","","","","","html-keyboard-response","73","1354857","0.0-69.0","32","1","2025-01-25 16:32:09","af8d355d56820e421d246a7037deb6e6","104.218.199.238","Mozilla/5.0 (Windows NT 10.0; Win64; x64) AppleWebKit/537.36 (KHTML, like Gecko) Chrome/127.0.0.0 Safari/537.36","WebKit","Chrome","127.0.0.0","Windows","10.0","https://app.prolific.com/","en-US,en;q=0.9","66986c9ad97d2e5ff07329c1","67949641171f97c04e14fb34","679511e1ed9c3a2d60180cae","","null","<img id='swapped'   src='G_1.jpg' height='90'> <img id='swapped'   src='G_5.jpg' height='90'> <img    src='G_8.jpg' height='90'> <img    src='G_2.jpg' height='90'> <img src='G_4.jpg' height='90'> <img src='G_3.jpg' height='90'> <img src='G_6.jpg' height='90'> <img src='G_7.jpg' height='90'>","null","Animation1",""
"","","","","","html-keyboard-response","74","1355858","0.0-70.0","32","1","2025-01-25 16:32:09","af8d355d56820e421d246a7037deb6e6","104.218.199.238","Mozilla/5.0 (Windows NT 10.0; Win64; x64) AppleWebKit/537.36 (KHTML, like Gecko) Chrome/127.0.0.0 Safari/537.36","WebKit","Chrome","127.0.0.0","Windows","10.0","https://app.prolific.com/","en-US,en;q=0.9","66986c9ad97d2e5ff07329c1","67949641171f97c04e14fb34","679511e1ed9c3a2d60180cae","","null","<img    src='G_1.jpg' height='90'> <img    src='G_5.jpg' height='90'> <img    src='G_8.jpg' height='90'> <img    src='G_2.jpg' height='90'> <img src='G_4.jpg' height='90'> <img src='G_3.jpg' height='90'> <img src='G_6.jpg' height='90'> <img src='G_7.jpg' height='90'>","null","Animation1",""
"","","","","","html-keyboard-response","75","1356868","0.0-71.0","32","1","2025-01-25 16:32:09","af8d355d56820e421d246a7037deb6e6","104.218.199.238","Mozilla/5.0 (Windows NT 10.0; Win64; x64) AppleWebKit/537.36 (KHTML, like Gecko) Chrome/127.0.0.0 Safari/537.36","WebKit","Chrome","127.0.0.0","Windows","10.0","https://app.prolific.com/","en-US,en;q=0.9","66986c9ad97d2e5ff07329c1","67949641171f97c04e14fb34","679511e1ed9c3a2d60180cae","","null","<img    src='G_1.jpg' height='90'> <img    src='G_5.jpg' height='90'> <img    src='G_8.jpg' height='90'> <img id='selected'    src='G_2.jpg' height='90'> <img src='G_4.jpg' height='90'> <img src='G_3.jpg' height='90'> <img src='G_6.jpg' height='90'> <img src='G_7.jpg' height='90'>","null","Animation1",""
"","","","","","html-keyboard-response","76","1357379","0.0-72.0","32","1","2025-01-25 16:32:09","af8d355d56820e421d246a7037deb6e6","104.218.199.238","Mozilla/5.0 (Windows NT 10.0; Win64; x64) AppleWebKit/537.36 (KHTML, like Gecko) Chrome/127.0.0.0 Safari/537.36","WebKit","Chrome","127.0.0.0","Windows","10.0","https://app.prolific.com/","en-US,en;q=0.9","66986c9ad97d2e5ff07329c1","67949641171f97c04e14fb34","679511e1ed9c3a2d60180cae","","null","<img    src='G_1.jpg' height='90'> <img    src='G_5.jpg' height='90'> <img    src='G_8.jpg' height='90'> <img id='selected'    src='G_2.jpg' height='90'> <img id='selected' src='G_4.jpg' height='90'> <img src='G_3.jpg' height='90'> <img src='G_6.jpg' height='90'> <img src='G_7.jpg' height='90'>","null","Animation1",""
"","","","","","html-keyboard-response","77","1357883","0.0-73.0","32","1","2025-01-25 16:32:09","af8d355d56820e421d246a7037deb6e6","104.218.199.238","Mozilla/5.0 (Windows NT 10.0; Win64; x64) AppleWebKit/537.36 (KHTML, like Gecko) Chrome/127.0.0.0 Safari/537.36","WebKit","Chrome","127.0.0.0","Windows","10.0","https://app.prolific.com/","en-US,en;q=0.9","66986c9ad97d2e5ff07329c1","67949641171f97c04e14fb34","679511e1ed9c3a2d60180cae","","null","<img    src='G_1.jpg' height='90'> <img    src='G_5.jpg' height='90'> <img    src='G_8.jpg' height='90'> <img id='swapped' src='G_4.jpg' height='90'> <img id='swapped'    src='G_2.jpg' height='90'> <img src='G_3.jpg' height='90'> <img src='G_6.jpg' height='90'> <img src='G_7.jpg' height='90'>","null","Animation1",""
"","","","","","html-keyboard-response","78","1358186","0.0-74.0","32","1","2025-01-25 16:32:09","af8d355d56820e421d246a7037deb6e6","104.218.199.238","Mozilla/5.0 (Windows NT 10.0; Win64; x64) AppleWebKit/537.36 (KHTML, like Gecko) Chrome/127.0.0.0 Safari/537.36","WebKit","Chrome","127.0.0.0","Windows","10.0","https://app.prolific.com/","en-US,en;q=0.9","66986c9ad97d2e5ff07329c1","67949641171f97c04e14fb34","679511e1ed9c3a2d60180cae","","null","<img    src='G_1.jpg' height='90'> <img    src='G_5.jpg' height='90'> <img    src='G_8.jpg' height='90'> <img  src='G_4.jpg' height='90'> <img     src='G_2.jpg' height='90'> <img src='G_3.jpg' height='90'> <img src='G_6.jpg' height='90'> <img src='G_7.jpg' height='90'>","null","Animation1",""
"","","","","","html-keyboard-response","79","1358690","0.0-75.0","32","1","2025-01-25 16:32:09","af8d355d56820e421d246a7037deb6e6","104.218.199.238","Mozilla/5.0 (Windows NT 10.0; Win64; x64) AppleWebKit/537.36 (KHTML, like Gecko) Chrome/127.0.0.0 Safari/537.36","WebKit","Chrome","127.0.0.0","Windows","10.0","https://app.prolific.com/","en-US,en;q=0.9","66986c9ad97d2e5ff07329c1","67949641171f97c04e14fb34","679511e1ed9c3a2d60180cae","","null","<img    src='G_1.jpg' height='90'> <img    src='G_5.jpg' height='90'> <img id='selected'    src='G_8.jpg' height='90'> <img  src='G_4.jpg' height='90'> <img     src='G_2.jpg' height='90'> <img src='G_3.jpg' height='90'> <img src='G_6.jpg' height='90'> <img src='G_7.jpg' height='90'>","null","Animation1",""
"","","","","","html-keyboard-response","80","1359195","0.0-76.0","32","1","2025-01-25 16:32:09","af8d355d56820e421d246a7037deb6e6","104.218.199.238","Mozilla/5.0 (Windows NT 10.0; Win64; x64) AppleWebKit/537.36 (KHTML, like Gecko) Chrome/127.0.0.0 Safari/537.36","WebKit","Chrome","127.0.0.0","Windows","10.0","https://app.prolific.com/","en-US,en;q=0.9","66986c9ad97d2e5ff07329c1","67949641171f97c04e14fb34","679511e1ed9c3a2d60180cae","","null","<img    src='G_1.jpg' height='90'> <img    src='G_5.jpg' height='90'> <img id='selected'    src='G_8.jpg' height='90'> <img id='selected'  src='G_4.jpg' height='90'> <img     src='G_2.jpg' height='90'> <img src='G_3.jpg' height='90'> <img src='G_6.jpg' height='90'> <img src='G_7.jpg' height='90'>","null","Animation1",""
"","","","","","html-keyboard-response","81","1359858","0.0-77.0","32","1","2025-01-25 16:32:09","af8d355d56820e421d246a7037deb6e6","104.218.199.238","Mozilla/5.0 (Windows NT 10.0; Win64; x64) AppleWebKit/537.36 (KHTML, like Gecko) Chrome/127.0.0.0 Safari/537.36","WebKit","Chrome","127.0.0.0","Windows","10.0","https://app.prolific.com/","en-US,en;q=0.9","66986c9ad97d2e5ff07329c1","67949641171f97c04e14fb34","679511e1ed9c3a2d60180cae","","null","<img    src='G_1.jpg' height='90'> <img    src='G_5.jpg' height='90'> <img id='swapped'  src='G_4.jpg' height='90'> <img id='swapped'    src='G_8.jpg' height='90'> <img     src='G_2.jpg' height='90'> <img src='G_3.jpg' height='90'> <img src='G_6.jpg' height='90'> <img src='G_7.jpg' height='90'>","null","Animation1",""
"","","","","","html-keyboard-response","82","1360857","0.0-78.0","32","1","2025-01-25 16:32:09","af8d355d56820e421d246a7037deb6e6","104.218.199.238","Mozilla/5.0 (Windows NT 10.0; Win64; x64) AppleWebKit/537.36 (KHTML, like Gecko) Chrome/127.0.0.0 Safari/537.36","WebKit","Chrome","127.0.0.0","Windows","10.0","https://app.prolific.com/","en-US,en;q=0.9","66986c9ad97d2e5ff07329c1","67949641171f97c04e14fb34","679511e1ed9c3a2d60180cae","","null","<img    src='G_1.jpg' height='90'> <img    src='G_5.jpg' height='90'> <img   src='G_4.jpg' height='90'> <img     src='G_8.jpg' height='90'> <img     src='G_2.jpg' height='90'> <img src='G_3.jpg' height='90'> <img src='G_6.jpg' height='90'> <img src='G_7.jpg' height='90'>","null","Animation1",""
"","","","","","html-keyboard-response","83","1361857","0.0-79.0","32","1","2025-01-25 16:32:09","af8d355d56820e421d246a7037deb6e6","104.218.199.238","Mozilla/5.0 (Windows NT 10.0; Win64; x64) AppleWebKit/537.36 (KHTML, like Gecko) Chrome/127.0.0.0 Safari/537.36","WebKit","Chrome","127.0.0.0","Windows","10.0","https://app.prolific.com/","en-US,en;q=0.9","66986c9ad97d2e5ff07329c1","67949641171f97c04e14fb34","679511e1ed9c3a2d60180cae","","null","<img    src='G_1.jpg' height='90'> <img id='selected'    src='G_5.jpg' height='90'> <img   src='G_4.jpg' height='90'> <img     src='G_8.jpg' height='90'> <img     src='G_2.jpg' height='90'> <img src='G_3.jpg' height='90'> <img src='G_6.jpg' height='90'> <img src='G_7.jpg' height='90'>","null","Animation1",""
"","","","","","html-keyboard-response","84","1362858","0.0-80.0","32","1","2025-01-25 16:32:09","af8d355d56820e421d246a7037deb6e6","104.218.199.238","Mozilla/5.0 (Windows NT 10.0; Win64; x64) AppleWebKit/537.36 (KHTML, like Gecko) Chrome/127.0.0.0 Safari/537.36","WebKit","Chrome","127.0.0.0","Windows","10.0","https://app.prolific.com/","en-US,en;q=0.9","66986c9ad97d2e5ff07329c1","67949641171f97c04e14fb34","679511e1ed9c3a2d60180cae","","null","<img    src='G_1.jpg' height='90'> <img id='selected'    src='G_5.jpg' height='90'> <img id='selected'   src='G_4.jpg' height='90'> <img     src='G_8.jpg' height='90'> <img     src='G_2.jpg' height='90'> <img src='G_3.jpg' height='90'> <img src='G_6.jpg' height='90'> <img src='G_7.jpg' height='90'>","null","Animation1",""
"","","","","","html-keyboard-response","85","1363857","0.0-81.0","32","1","2025-01-25 16:32:09","af8d355d56820e421d246a7037deb6e6","104.218.199.238","Mozilla/5.0 (Windows NT 10.0; Win64; x64) AppleWebKit/537.36 (KHTML, like Gecko) Chrome/127.0.0.0 Safari/537.36","WebKit","Chrome","127.0.0.0","Windows","10.0","https://app.prolific.com/","en-US,en;q=0.9","66986c9ad97d2e5ff07329c1","67949641171f97c04e14fb34","679511e1ed9c3a2d60180cae","","null","<img    src='G_1.jpg' height='90'> <img id='swapped'   src='G_4.jpg' height='90'> <img id='swapped'    src='G_5.jpg' height='90'> <img     src='G_8.jpg' height='90'> <img     src='G_2.jpg' height='90'> <img src='G_3.jpg' height='90'> <img src='G_6.jpg' height='90'> <img src='G_7.jpg' height='90'>","null","Animation1",""
"","","","","","html-keyboard-response","86","1364857","0.0-82.0","32","1","2025-01-25 16:32:09","af8d355d56820e421d246a7037deb6e6","104.218.199.238","Mozilla/5.0 (Windows NT 10.0; Win64; x64) AppleWebKit/537.36 (KHTML, like Gecko) Chrome/127.0.0.0 Safari/537.36","WebKit","Chrome","127.0.0.0","Windows","10.0","https://app.prolific.com/","en-US,en;q=0.9","66986c9ad97d2e5ff07329c1","67949641171f97c04e14fb34","679511e1ed9c3a2d60180cae","","null","<img    src='G_1.jpg' height='90'> <img    src='G_4.jpg' height='90'> <img     src='G_5.jpg' height='90'> <img     src='G_8.jpg' height='90'> <img     src='G_2.jpg' height='90'> <img src='G_3.jpg' height='90'> <img src='G_6.jpg' height='90'> <img src='G_7.jpg' height='90'>","null","Animation1",""
"","","","","","html-keyboard-response","87","1365857","0.0-83.0","32","1","2025-01-25 16:32:09","af8d355d56820e421d246a7037deb6e6","104.218.199.238","Mozilla/5.0 (Windows NT 10.0; Win64; x64) AppleWebKit/537.36 (KHTML, like Gecko) Chrome/127.0.0.0 Safari/537.36","WebKit","Chrome","127.0.0.0","Windows","10.0","https://app.prolific.com/","en-US,en;q=0.9","66986c9ad97d2e5ff07329c1","67949641171f97c04e14fb34","679511e1ed9c3a2d60180cae","","null","<img id='selected'    src='G_1.jpg' height='90'> <img    src='G_4.jpg' height='90'> <img     src='G_5.jpg' height='90'> <img     src='G_8.jpg' height='90'> <img     src='G_2.jpg' height='90'> <img src='G_3.jpg' height='90'> <img src='G_6.jpg' height='90'> <img src='G_7.jpg' height='90'>","null","Animation1",""
"","","","","","html-keyboard-response","88","1366365","0.0-84.0","32","1","2025-01-25 16:32:09","af8d355d56820e421d246a7037deb6e6","104.218.199.238","Mozilla/5.0 (Windows NT 10.0; Win64; x64) AppleWebKit/537.36 (KHTML, like Gecko) Chrome/127.0.0.0 Safari/537.36","WebKit","Chrome","127.0.0.0","Windows","10.0","https://app.prolific.com/","en-US,en;q=0.9","66986c9ad97d2e5ff07329c1","67949641171f97c04e14fb34","679511e1ed9c3a2d60180cae","","null","<img id='selected'    src='G_1.jpg' height='90'> <img id='selected'    src='G_4.jpg' height='90'> <img     src='G_5.jpg' height='90'> <img     src='G_8.jpg' height='90'> <img     src='G_2.jpg' height='90'> <img src='G_3.jpg' height='90'> <img src='G_6.jpg' height='90'> <img src='G_7.jpg' height='90'>","null","Animation1",""
"","","","","","html-keyboard-response","89","1366869","0.0-85.0","32","1","2025-01-25 16:32:09","af8d355d56820e421d246a7037deb6e6","104.218.199.238","Mozilla/5.0 (Windows NT 10.0; Win64; x64) AppleWebKit/537.36 (KHTML, like Gecko) Chrome/127.0.0.0 Safari/537.36","WebKit","Chrome","127.0.0.0","Windows","10.0","https://app.prolific.com/","en-US,en;q=0.9","66986c9ad97d2e5ff07329c1","67949641171f97c04e14fb34","679511e1ed9c3a2d60180cae","","null","<img id='selected'    src='G_1.jpg' height='90'> <img id='selected'    src='G_4.jpg' height='90'> <img     src='G_5.jpg' height='90'> <img     src='G_8.jpg' height='90'> <img     src='G_2.jpg' height='90'> <img src='G_3.jpg' height='90'> <img src='G_6.jpg' height='90'> <img src='G_7.jpg' height='90'>","null","Animation1",""
"","","","","","html-keyboard-response","90","1367173","0.0-86.0","32","1","2025-01-25 16:32:09","af8d355d56820e421d246a7037deb6e6","104.218.199.238","Mozilla/5.0 (Windows NT 10.0; Win64; x64) AppleWebKit/537.36 (KHTML, like Gecko) Chrome/127.0.0.0 Safari/537.36","WebKit","Chrome","127.0.0.0","Windows","10.0","https://app.prolific.com/","en-US,en;q=0.9","66986c9ad97d2e5ff07329c1","67949641171f97c04e14fb34","679511e1ed9c3a2d60180cae","","null","<img     src='G_1.jpg' height='90'> <img     src='G_4.jpg' height='90'> <img     src='G_5.jpg' height='90'> <img     src='G_8.jpg' height='90'> <img     src='G_2.jpg' height='90'> <img src='G_3.jpg' height='90'> <img src='G_6.jpg' height='90'> <img src='G_7.jpg' height='90'>","null","Animation1",""
"","","","","","html-keyboard-response","91","1367680","0.0-87.0","32","1","2025-01-25 16:32:09","af8d355d56820e421d246a7037deb6e6","104.218.199.238","Mozilla/5.0 (Windows NT 10.0; Win64; x64) AppleWebKit/537.36 (KHTML, like Gecko) Chrome/127.0.0.0 Safari/537.36","WebKit","Chrome","127.0.0.0","Windows","10.0","https://app.prolific.com/","en-US,en;q=0.9","66986c9ad97d2e5ff07329c1","67949641171f97c04e14fb34","679511e1ed9c3a2d60180cae","","null","<img     src='G_1.jpg' height='90'> <img     src='G_4.jpg' height='90'> <img     src='G_5.jpg' height='90'> <img     src='G_8.jpg' height='90'> <img id='selected'     src='G_2.jpg' height='90'> <img src='G_3.jpg' height='90'> <img src='G_6.jpg' height='90'> <img src='G_7.jpg' height='90'>","null","Animation1",""
"","","","","","html-keyboard-response","92","1368191","0.0-88.0","32","1","2025-01-25 16:32:09","af8d355d56820e421d246a7037deb6e6","104.218.199.238","Mozilla/5.0 (Windows NT 10.0; Win64; x64) AppleWebKit/537.36 (KHTML, like Gecko) Chrome/127.0.0.0 Safari/537.36","WebKit","Chrome","127.0.0.0","Windows","10.0","https://app.prolific.com/","en-US,en;q=0.9","66986c9ad97d2e5ff07329c1","67949641171f97c04e14fb34","679511e1ed9c3a2d60180cae","","null","<img     src='G_1.jpg' height='90'> <img     src='G_4.jpg' height='90'> <img     src='G_5.jpg' height='90'> <img     src='G_8.jpg' height='90'> <img id='selected'     src='G_2.jpg' height='90'> <img id='selected' src='G_3.jpg' height='90'> <img src='G_6.jpg' height='90'> <img src='G_7.jpg' height='90'>","null","Animation1",""
"","","","","","html-keyboard-response","93","1368696","0.0-89.0","32","1","2025-01-25 16:32:09","af8d355d56820e421d246a7037deb6e6","104.218.199.238","Mozilla/5.0 (Windows NT 10.0; Win64; x64) AppleWebKit/537.36 (KHTML, like Gecko) Chrome/127.0.0.0 Safari/537.36","WebKit","Chrome","127.0.0.0","Windows","10.0","https://app.prolific.com/","en-US,en;q=0.9","66986c9ad97d2e5ff07329c1","67949641171f97c04e14fb34","679511e1ed9c3a2d60180cae","","null","<img     src='G_1.jpg' height='90'> <img     src='G_4.jpg' height='90'> <img     src='G_5.jpg' height='90'> <img     src='G_8.jpg' height='90'> <img id='swapped' src='G_3.jpg' height='90'> <img id='swapped'     src='G_2.jpg' height='90'> <img src='G_6.jpg' height='90'> <img src='G_7.jpg' height='90'>","null","Animation1",""
"","","","","","html-keyboard-response","94","1369001","0.0-90.0","32","1","2025-01-25 16:32:09","af8d355d56820e421d246a7037deb6e6","104.218.199.238","Mozilla/5.0 (Windows NT 10.0; Win64; x64) AppleWebKit/537.36 (KHTML, like Gecko) Chrome/127.0.0.0 Safari/537.36","WebKit","Chrome","127.0.0.0","Windows","10.0","https://app.prolific.com/","en-US,en;q=0.9","66986c9ad97d2e5ff07329c1","67949641171f97c04e14fb34","679511e1ed9c3a2d60180cae","","null","<img     src='G_1.jpg' height='90'> <img     src='G_4.jpg' height='90'> <img     src='G_5.jpg' height='90'> <img     src='G_8.jpg' height='90'> <img  src='G_3.jpg' height='90'> <img      src='G_2.jpg' height='90'> <img src='G_6.jpg' height='90'> <img src='G_7.jpg' height='90'>","null","Animation1",""
"","","","","","html-keyboard-response","95","1369508","0.0-91.0","32","1","2025-01-25 16:32:09","af8d355d56820e421d246a7037deb6e6","104.218.199.238","Mozilla/5.0 (Windows NT 10.0; Win64; x64) AppleWebKit/537.36 (KHTML, like Gecko) Chrome/127.0.0.0 Safari/537.36","WebKit","Chrome","127.0.0.0","Windows","10.0","https://app.prolific.com/","en-US,en;q=0.9","66986c9ad97d2e5ff07329c1","67949641171f97c04e14fb34","679511e1ed9c3a2d60180cae","","null","<img     src='G_1.jpg' height='90'> <img     src='G_4.jpg' height='90'> <img     src='G_5.jpg' height='90'> <img id='selected'     src='G_8.jpg' height='90'> <img  src='G_3.jpg' height='90'> <img      src='G_2.jpg' height='90'> <img src='G_6.jpg' height='90'> <img src='G_7.jpg' height='90'>","null","Animation1",""
"","","","","","html-keyboard-response","96","1370018","0.0-92.0","32","1","2025-01-25 16:32:09","af8d355d56820e421d246a7037deb6e6","104.218.199.238","Mozilla/5.0 (Windows NT 10.0; Win64; x64) AppleWebKit/537.36 (KHTML, like Gecko) Chrome/127.0.0.0 Safari/537.36","WebKit","Chrome","127.0.0.0","Windows","10.0","https://app.prolific.com/","en-US,en;q=0.9","66986c9ad97d2e5ff07329c1","67949641171f97c04e14fb34","679511e1ed9c3a2d60180cae","","null","<img     src='G_1.jpg' height='90'> <img     src='G_4.jpg' height='90'> <img     src='G_5.jpg' height='90'> <img id='selected'     src='G_8.jpg' height='90'> <img id='selected'  src='G_3.jpg' height='90'> <img      src='G_2.jpg' height='90'> <img src='G_6.jpg' height='90'> <img src='G_7.jpg' height='90'>","null","Animation1",""
"","","","","","html-keyboard-response","97","1370528","0.0-93.0","32","1","2025-01-25 16:32:09","af8d355d56820e421d246a7037deb6e6","104.218.199.238","Mozilla/5.0 (Windows NT 10.0; Win64; x64) AppleWebKit/537.36 (KHTML, like Gecko) Chrome/127.0.0.0 Safari/537.36","WebKit","Chrome","127.0.0.0","Windows","10.0","https://app.prolific.com/","en-US,en;q=0.9","66986c9ad97d2e5ff07329c1","67949641171f97c04e14fb34","679511e1ed9c3a2d60180cae","","null","<img     src='G_1.jpg' height='90'> <img     src='G_4.jpg' height='90'> <img     src='G_5.jpg' height='90'> <img id='selected'     src='G_8.jpg' height='90'> <img id='selected'  src='G_3.jpg' height='90'> <img      src='G_2.jpg' height='90'> <img src='G_6.jpg' height='90'> <img src='G_7.jpg' height='90'>","null","Animation1",""
"","","","","","html-keyboard-response","98","1370835","0.0-94.0","32","1","2025-01-25 16:32:09","af8d355d56820e421d246a7037deb6e6","104.218.199.238","Mozilla/5.0 (Windows NT 10.0; Win64; x64) AppleWebKit/537.36 (KHTML, like Gecko) Chrome/127.0.0.0 Safari/537.36","WebKit","Chrome","127.0.0.0","Windows","10.0","https://app.prolific.com/","en-US,en;q=0.9","66986c9ad97d2e5ff07329c1","67949641171f97c04e14fb34","679511e1ed9c3a2d60180cae","","null","<img     src='G_1.jpg' height='90'> <img     src='G_4.jpg' height='90'> <img     src='G_5.jpg' height='90'> <img      src='G_8.jpg' height='90'> <img   src='G_3.jpg' height='90'> <img      src='G_2.jpg' height='90'> <img src='G_6.jpg' height='90'> <img src='G_7.jpg' height='90'>","null","Animation1",""
"","","","","","html-keyboard-response","99","1371344","0.0-95.0","32","1","2025-01-25 16:32:09","af8d355d56820e421d246a7037deb6e6","104.218.199.238","Mozilla/5.0 (Windows NT 10.0; Win64; x64) AppleWebKit/537.36 (KHTML, like Gecko) Chrome/127.0.0.0 Safari/537.36","WebKit","Chrome","127.0.0.0","Windows","10.0","https://app.prolific.com/","en-US,en;q=0.9","66986c9ad97d2e5ff07329c1","67949641171f97c04e14fb34","679511e1ed9c3a2d60180cae","","null","<img     src='G_1.jpg' height='90'> <img     src='G_4.jpg' height='90'> <img     src='G_5.jpg' height='90'> <img      src='G_8.jpg' height='90'> <img   src='G_3.jpg' height='90'> <img id='selected'      src='G_2.jpg' height='90'> <img src='G_6.jpg' height='90'> <img src='G_7.jpg' height='90'>","null","Animation1",""
"","","","","","html-keyboard-response","100","1371854","0.0-96.0","32","1","2025-01-25 16:32:09","af8d355d56820e421d246a7037deb6e6","104.218.199.238","Mozilla/5.0 (Windows NT 10.0; Win64; x64) AppleWebKit/537.36 (KHTML, like Gecko) Chrome/127.0.0.0 Safari/537.36","WebKit","Chrome","127.0.0.0","Windows","10.0","https://app.prolific.com/","en-US,en;q=0.9","66986c9ad97d2e5ff07329c1","67949641171f97c04e14fb34","679511e1ed9c3a2d60180cae","","null","<img     src='G_1.jpg' height='90'> <img     src='G_4.jpg' height='90'> <img     src='G_5.jpg' height='90'> <img      src='G_8.jpg' height='90'> <img   src='G_3.jpg' height='90'> <img id='selected'      src='G_2.jpg' height='90'> <img id='selected' src='G_6.jpg' height='90'> <img src='G_7.jpg' height='90'>","null","Animation1",""
"","","","","","html-keyboard-response","101","1372363","0.0-97.0","32","1","2025-01-25 16:32:09","af8d355d56820e421d246a7037deb6e6","104.218.199.238","Mozilla/5.0 (Windows NT 10.0; Win64; x64) AppleWebKit/537.36 (KHTML, like Gecko) Chrome/127.0.0.0 Safari/537.36","WebKit","Chrome","127.0.0.0","Windows","10.0","https://app.prolific.com/","en-US,en;q=0.9","66986c9ad97d2e5ff07329c1","67949641171f97c04e14fb34","679511e1ed9c3a2d60180cae","","null","<img     src='G_1.jpg' height='90'> <img     src='G_4.jpg' height='90'> <img     src='G_5.jpg' height='90'> <img      src='G_8.jpg' height='90'> <img   src='G_3.jpg' height='90'> <img id='selected'      src='G_2.jpg' height='90'> <img id='selected' src='G_6.jpg' height='90'> <img src='G_7.jpg' height='90'>","null","Animation1",""
"","","","","","html-keyboard-response","102","1372671","0.0-98.0","32","1","2025-01-25 16:32:09","af8d355d56820e421d246a7037deb6e6","104.218.199.238","Mozilla/5.0 (Windows NT 10.0; Win64; x64) AppleWebKit/537.36 (KHTML, like Gecko) Chrome/127.0.0.0 Safari/537.36","WebKit","Chrome","127.0.0.0","Windows","10.0","https://app.prolific.com/","en-US,en;q=0.9","66986c9ad97d2e5ff07329c1","67949641171f97c04e14fb34","679511e1ed9c3a2d60180cae","","null","<img     src='G_1.jpg' height='90'> <img     src='G_4.jpg' height='90'> <img     src='G_5.jpg' height='90'> <img      src='G_8.jpg' height='90'> <img   src='G_3.jpg' height='90'> <img       src='G_2.jpg' height='90'> <img  src='G_6.jpg' height='90'> <img src='G_7.jpg' height='90'>","null","Animation1",""
"","","","","","html-keyboard-response","103","1373180","0.0-99.0","32","1","2025-01-25 16:32:09","af8d355d56820e421d246a7037deb6e6","104.218.199.238","Mozilla/5.0 (Windows NT 10.0; Win64; x64) AppleWebKit/537.36 (KHTML, like Gecko) Chrome/127.0.0.0 Safari/537.36","WebKit","Chrome","127.0.0.0","Windows","10.0","https://app.prolific.com/","en-US,en;q=0.9","66986c9ad97d2e5ff07329c1","67949641171f97c04e14fb34","679511e1ed9c3a2d60180cae","","null","<img     src='G_1.jpg' height='90'> <img     src='G_4.jpg' height='90'> <img     src='G_5.jpg' height='90'> <img      src='G_8.jpg' height='90'> <img   src='G_3.jpg' height='90'> <img       src='G_2.jpg' height='90'> <img id='selected'  src='G_6.jpg' height='90'> <img src='G_7.jpg' height='90'>","null","Animation1",""
"","","","","","html-keyboard-response","104","1373687","0.0-100.0","32","1","2025-01-25 16:32:09","af8d355d56820e421d246a7037deb6e6","104.218.199.238","Mozilla/5.0 (Windows NT 10.0; Win64; x64) AppleWebKit/537.36 (KHTML, like Gecko) Chrome/127.0.0.0 Safari/537.36","WebKit","Chrome","127.0.0.0","Windows","10.0","https://app.prolific.com/","en-US,en;q=0.9","66986c9ad97d2e5ff07329c1","67949641171f97c04e14fb34","679511e1ed9c3a2d60180cae","","null","<img     src='G_1.jpg' height='90'> <img     src='G_4.jpg' height='90'> <img     src='G_5.jpg' height='90'> <img      src='G_8.jpg' height='90'> <img   src='G_3.jpg' height='90'> <img       src='G_2.jpg' height='90'> <img id='selected'  src='G_6.jpg' height='90'> <img id='selected' src='G_7.jpg' height='90'>","null","Animation1",""
"","","","","","html-keyboard-response","105","1374196","0.0-101.0","32","1","2025-01-25 16:32:09","af8d355d56820e421d246a7037deb6e6","104.218.199.238","Mozilla/5.0 (Windows NT 10.0; Win64; x64) AppleWebKit/537.36 (KHTML, like Gecko) Chrome/127.0.0.0 Safari/537.36","WebKit","Chrome","127.0.0.0","Windows","10.0","https://app.prolific.com/","en-US,en;q=0.9","66986c9ad97d2e5ff07329c1","67949641171f97c04e14fb34","679511e1ed9c3a2d60180cae","","null","<img     src='G_1.jpg' height='90'> <img     src='G_4.jpg' height='90'> <img     src='G_5.jpg' height='90'> <img      src='G_8.jpg' height='90'> <img   src='G_3.jpg' height='90'> <img       src='G_2.jpg' height='90'> <img id='swapped' src='G_7.jpg' height='90'> <img id='swapped'  src='G_6.jpg' height='90'>","null","Animation1",""
"","","","","","html-keyboard-response","106","1374504","0.0-102.0","32","1","2025-01-25 16:32:09","af8d355d56820e421d246a7037deb6e6","104.218.199.238","Mozilla/5.0 (Windows NT 10.0; Win64; x64) AppleWebKit/537.36 (KHTML, like Gecko) Chrome/127.0.0.0 Safari/537.36","WebKit","Chrome","127.0.0.0","Windows","10.0","https://app.prolific.com/","en-US,en;q=0.9","66986c9ad97d2e5ff07329c1","67949641171f97c04e14fb34","679511e1ed9c3a2d60180cae","","null","<img     src='G_1.jpg' height='90'> <img     src='G_4.jpg' height='90'> <img     src='G_5.jpg' height='90'> <img      src='G_8.jpg' height='90'> <img   src='G_3.jpg' height='90'> <img       src='G_2.jpg' height='90'> <img  src='G_7.jpg' height='90'> <img   src='G_6.jpg' height='90'>","null","Animation1",""
"","","","","","html-keyboard-response","107","1375013","0.0-103.0","32","1","2025-01-25 16:32:09","af8d355d56820e421d246a7037deb6e6","104.218.199.238","Mozilla/5.0 (Windows NT 10.0; Win64; x64) AppleWebKit/537.36 (KHTML, like Gecko) Chrome/127.0.0.0 Safari/537.36","WebKit","Chrome","127.0.0.0","Windows","10.0","https://app.prolific.com/","en-US,en;q=0.9","66986c9ad97d2e5ff07329c1","67949641171f97c04e14fb34","679511e1ed9c3a2d60180cae","","null","<img     src='G_1.jpg' height='90'> <img     src='G_4.jpg' height='90'> <img     src='G_5.jpg' height='90'> <img      src='G_8.jpg' height='90'> <img   src='G_3.jpg' height='90'> <img id='selected'       src='G_2.jpg' height='90'> <img  src='G_7.jpg' height='90'> <img   src='G_6.jpg' height='90'>","null","Animation1",""
"","","","","","html-keyboard-response","108","1375522","0.0-104.0","32","1","2025-01-25 16:32:09","af8d355d56820e421d246a7037deb6e6","104.218.199.238","Mozilla/5.0 (Windows NT 10.0; Win64; x64) AppleWebKit/537.36 (KHTML, like Gecko) Chrome/127.0.0.0 Safari/537.36","WebKit","Chrome","127.0.0.0","Windows","10.0","https://app.prolific.com/","en-US,en;q=0.9","66986c9ad97d2e5ff07329c1","67949641171f97c04e14fb34","679511e1ed9c3a2d60180cae","","null","<img     src='G_1.jpg' height='90'> <img     src='G_4.jpg' height='90'> <img     src='G_5.jpg' height='90'> <img      src='G_8.jpg' height='90'> <img   src='G_3.jpg' height='90'> <img id='selected'       src='G_2.jpg' height='90'> <img id='selected'  src='G_7.jpg' height='90'> <img   src='G_6.jpg' height='90'>","null","Animation1",""
"","","","","","html-keyboard-response","109","1376030","0.0-105.0","32","1","2025-01-25 16:32:09","af8d355d56820e421d246a7037deb6e6","104.218.199.238","Mozilla/5.0 (Windows NT 10.0; Win64; x64) AppleWebKit/537.36 (KHTML, like Gecko) Chrome/127.0.0.0 Safari/537.36","WebKit","Chrome","127.0.0.0","Windows","10.0","https://app.prolific.com/","en-US,en;q=0.9","66986c9ad97d2e5ff07329c1","67949641171f97c04e14fb34","679511e1ed9c3a2d60180cae","","null","<img     src='G_1.jpg' height='90'> <img     src='G_4.jpg' height='90'> <img     src='G_5.jpg' height='90'> <img      src='G_8.jpg' height='90'> <img   src='G_3.jpg' height='90'> <img id='selected'       src='G_2.jpg' height='90'> <img id='selected'  src='G_7.jpg' height='90'> <img   src='G_6.jpg' height='90'>","null","Animation1",""
"","","","","","html-keyboard-response","110","1376340","0.0-106.0","32","1","2025-01-25 16:32:09","af8d355d56820e421d246a7037deb6e6","104.218.199.238","Mozilla/5.0 (Windows NT 10.0; Win64; x64) AppleWebKit/537.36 (KHTML, like Gecko) Chrome/127.0.0.0 Safari/537.36","WebKit","Chrome","127.0.0.0","Windows","10.0","https://app.prolific.com/","en-US,en;q=0.9","66986c9ad97d2e5ff07329c1","67949641171f97c04e14fb34","679511e1ed9c3a2d60180cae","","null","<img     src='G_1.jpg' height='90'> <img     src='G_4.jpg' height='90'> <img     src='G_5.jpg' height='90'> <img      src='G_8.jpg' height='90'> <img   src='G_3.jpg' height='90'> <img        src='G_2.jpg' height='90'> <img   src='G_7.jpg' height='90'> <img   src='G_6.jpg' height='90'>","null","Animation1",""
"","","","","","html-keyboard-response","111","1377038","0.0-107.0","32","1","2025-01-25 16:32:09","af8d355d56820e421d246a7037deb6e6","104.218.199.238","Mozilla/5.0 (Windows NT 10.0; Win64; x64) AppleWebKit/537.36 (KHTML, like Gecko) Chrome/127.0.0.0 Safari/537.36","WebKit","Chrome","127.0.0.0","Windows","10.0","https://app.prolific.com/","en-US,en;q=0.9","66986c9ad97d2e5ff07329c1","67949641171f97c04e14fb34","679511e1ed9c3a2d60180cae","","692","[""Did you notice any patterns? <br><br>Press Enter to watch that example again and follow the steps of Omgne Sort.""]","enter","",""
"","","","","","html-button-response","112","1377442","0.0-108.0","32","1","2025-01-25 16:32:09","af8d355d56820e421d246a7037deb6e6","104.218.199.238","Mozilla/5.0 (Windows NT 10.0; Win64; x64) AppleWebKit/537.36 (KHTML, like Gecko) Chrome/127.0.0.0 Safari/537.36","WebKit","Chrome","127.0.0.0","Windows","10.0","https://app.prolific.com/","en-US,en;q=0.9","66986c9ad97d2e5ff07329c1","67949641171f97c04e14fb34","679511e1ed9c3a2d60180cae","","null","<img id='selected' src='G_8.jpg' height='90'> <img src='G_2.jpg' height='90'> <img src='G_5.jpg' height='90'> <img src='G_1.jpg' height='90'> <img src='G_4.jpg' height='90'> <img src='G_3.jpg' height='90'> <img src='G_6.jpg' height='90'> <img src='G_7.jpg' height='90'>","null","Learning example 1",""
"","","","","","html-button-response","113","1377752","0.0-109.0","32","1","2025-01-25 16:32:09","af8d355d56820e421d246a7037deb6e6","104.218.199.238","Mozilla/5.0 (Windows NT 10.0; Win64; x64) AppleWebKit/537.36 (KHTML, like Gecko) Chrome/127.0.0.0 Safari/537.36","WebKit","Chrome","127.0.0.0","Windows","10.0","https://app.prolific.com/","en-US,en;q=0.9","66986c9ad97d2e5ff07329c1","67949641171f97c04e14fb34","679511e1ed9c3a2d60180cae","","null","<img id='selected' src='G_8.jpg' height='90'> <img id='selected' src='G_2.jpg' height='90'> <img src='G_5.jpg' height='90'> <img src='G_1.jpg' height='90'> <img src='G_4.jpg' height='90'> <img src='G_3.jpg' height='90'> <img src='G_6.jpg' height='90'> <img src='G_7.jpg' height='90'>","null","Learning example 1",""
"","","","","","html-button-response","114","1378059","0.0-110.0","32","1","2025-01-25 16:32:09","af8d355d56820e421d246a7037deb6e6","104.218.199.238","Mozilla/5.0 (Windows NT 10.0; Win64; x64) AppleWebKit/537.36 (KHTML, like Gecko) Chrome/127.0.0.0 Safari/537.36","WebKit","Chrome","127.0.0.0","Windows","10.0","https://app.prolific.com/","en-US,en;q=0.9","66986c9ad97d2e5ff07329c1","67949641171f97c04e14fb34","679511e1ed9c3a2d60180cae","","null","<img id='selected' src='G_8.jpg' height='90'> <img id='selected' src='G_2.jpg' height='90'> <img src='G_5.jpg' height='90'> <img src='G_1.jpg' height='90'> <img src='G_4.jpg' height='90'> <img src='G_3.jpg' height='90'> <img src='G_6.jpg' height='90'> <img src='G_7.jpg' height='90'>","null","Learning example 1",""
"","","","","","html-button-response","115","1378814","0.0-111.0-0.0-0.0","32","1","2025-01-25 16:32:09","af8d355d56820e421d246a7037deb6e6","104.218.199.238","Mozilla/5.0 (Windows NT 10.0; Win64; x64) AppleWebKit/537.36 (KHTML, like Gecko) Chrome/127.0.0.0 Safari/537.36","WebKit","Chrome","127.0.0.0","Windows","10.0","https://app.prolific.com/","en-US,en;q=0.9","66986c9ad97d2e5ff07329c1","67949641171f97c04e14fb34","679511e1ed9c3a2d60180cae","","749","<img id='selected' src='G_8.jpg' height='90'> <img id='selected' src='G_2.jpg' height='90'> <img src='G_5.jpg' height='90'> <img src='G_1.jpg' height='90'> <img src='G_4.jpg' height='90'> <img src='G_3.jpg' height='90'> <img src='G_6.jpg' height='90'> <img src='G_7.jpg' height='90'>","0","Learning example 1",""
"","","","","","html-button-response","116","1379419","0.0-111.1-0.1-0.1","32","1","2025-01-25 16:32:09","af8d355d56820e421d246a7037deb6e6","104.218.199.238","Mozilla/5.0 (Windows NT 10.0; Win64; x64) AppleWebKit/537.36 (KHTML, like Gecko) Chrome/127.0.0.0 Safari/537.36","WebKit","Chrome","127.0.0.0","Windows","10.0","https://app.prolific.com/","en-US,en;q=0.9","66986c9ad97d2e5ff07329c1","67949641171f97c04e14fb34","679511e1ed9c3a2d60180cae","","594","<img id='selected' src='G_8.jpg' height='90'> <img id='selected' src='G_2.jpg' height='90'> <img src='G_5.jpg' height='90'> <img src='G_1.jpg' height='90'> <img src='G_4.jpg' height='90'> <img src='G_3.jpg' height='90'> <img src='G_6.jpg' height='90'> <img src='G_7.jpg' height='90'>","1","Learning example 1",""
"","","","","","html-button-response","117","1379631","0.0-112.0","32","1","2025-01-25 16:32:09","af8d355d56820e421d246a7037deb6e6","104.218.199.238","Mozilla/5.0 (Windows NT 10.0; Win64; x64) AppleWebKit/537.36 (KHTML, like Gecko) Chrome/127.0.0.0 Safari/537.36","WebKit","Chrome","127.0.0.0","Windows","10.0","https://app.prolific.com/","en-US,en;q=0.9","66986c9ad97d2e5ff07329c1","67949641171f97c04e14fb34","679511e1ed9c3a2d60180cae","","null","<img  src='G_8.jpg' height='90'> <img  src='G_2.jpg' height='90'> <img src='G_5.jpg' height='90'> <img src='G_1.jpg' height='90'> <img src='G_4.jpg' height='90'> <img src='G_3.jpg' height='90'> <img src='G_6.jpg' height='90'> <img src='G_7.jpg' height='90'>","null","Learning example 1",""
"","","","","","html-button-response","118","1380042","0.0-113.0","32","1","2025-01-25 16:32:09","af8d355d56820e421d246a7037deb6e6","104.218.199.238","Mozilla/5.0 (Windows NT 10.0; Win64; x64) AppleWebKit/537.36 (KHTML, like Gecko) Chrome/127.0.0.0 Safari/537.36","WebKit","Chrome","127.0.0.0","Windows","10.0","https://app.prolific.com/","en-US,en;q=0.9","66986c9ad97d2e5ff07329c1","67949641171f97c04e14fb34","679511e1ed9c3a2d60180cae","","null","<img  src='G_8.jpg' height='90'> <img id='selected'  src='G_2.jpg' height='90'> <img src='G_5.jpg' height='90'> <img src='G_1.jpg' height='90'> <img src='G_4.jpg' height='90'> <img src='G_3.jpg' height='90'> <img src='G_6.jpg' height='90'> <img src='G_7.jpg' height='90'>","null","Learning example 1",""
"","","","","","html-button-response","119","1380354","0.0-114.0","32","1","2025-01-25 16:32:09","af8d355d56820e421d246a7037deb6e6","104.218.199.238","Mozilla/5.0 (Windows NT 10.0; Win64; x64) AppleWebKit/537.36 (KHTML, like Gecko) Chrome/127.0.0.0 Safari/537.36","WebKit","Chrome","127.0.0.0","Windows","10.0","https://app.prolific.com/","en-US,en;q=0.9","66986c9ad97d2e5ff07329c1","67949641171f97c04e14fb34","679511e1ed9c3a2d60180cae","","null","<img  src='G_8.jpg' height='90'> <img id='selected'  src='G_2.jpg' height='90'> <img id='selected' src='G_5.jpg' height='90'> <img src='G_1.jpg' height='90'> <img src='G_4.jpg' height='90'> <img src='G_3.jpg' height='90'> <img src='G_6.jpg' height='90'> <img src='G_7.jpg' height='90'>","null","Learning example 1",""
"","","","","","html-button-response","120","1380665","0.0-115.0","32","1","2025-01-25 16:32:09","af8d355d56820e421d246a7037deb6e6","104.218.199.238","Mozilla/5.0 (Windows NT 10.0; Win64; x64) AppleWebKit/537.36 (KHTML, like Gecko) Chrome/127.0.0.0 Safari/537.36","WebKit","Chrome","127.0.0.0","Windows","10.0","https://app.prolific.com/","en-US,en;q=0.9","66986c9ad97d2e5ff07329c1","67949641171f97c04e14fb34","679511e1ed9c3a2d60180cae","","null","<img  src='G_8.jpg' height='90'> <img id='swapped' src='G_5.jpg' height='90'> <img id='swapped'  src='G_2.jpg' height='90'> <img src='G_1.jpg' height='90'> <img src='G_4.jpg' height='90'> <img src='G_3.jpg' height='90'> <img src='G_6.jpg' height='90'> <img src='G_7.jpg' height='90'>","null","Learning example 1",""
"","","","","","html-button-response","121","1381744","0.0-116.0-0.0-0.0","32","1","2025-01-25 16:32:09","af8d355d56820e421d246a7037deb6e6","104.218.199.238","Mozilla/5.0 (Windows NT 10.0; Win64; x64) AppleWebKit/537.36 (KHTML, like Gecko) Chrome/127.0.0.0 Safari/537.36","WebKit","Chrome","127.0.0.0","Windows","10.0","https://app.prolific.com/","en-US,en;q=0.9","66986c9ad97d2e5ff07329c1","67949641171f97c04e14fb34","679511e1ed9c3a2d60180cae","","1068","<img  src='G_8.jpg' height='90'> <img id='swapped' src='G_5.jpg' height='90'> <img id='swapped'  src='G_2.jpg' height='90'> <img src='G_1.jpg' height='90'> <img src='G_4.jpg' height='90'> <img src='G_3.jpg' height='90'> <img src='G_6.jpg' height='90'> <img src='G_7.jpg' height='90'>","1","Learning example 1",""
"","","","","","html-button-response","122","1382253","0.0-116.1-0.1-0.1","32","1","2025-01-25 16:32:09","af8d355d56820e421d246a7037deb6e6","104.218.199.238","Mozilla/5.0 (Windows NT 10.0; Win64; x64) AppleWebKit/537.36 (KHTML, like Gecko) Chrome/127.0.0.0 Safari/537.36","WebKit","Chrome","127.0.0.0","Windows","10.0","https://app.prolific.com/","en-US,en;q=0.9","66986c9ad97d2e5ff07329c1","67949641171f97c04e14fb34","679511e1ed9c3a2d60180cae","","498","<img  src='G_8.jpg' height='90'> <img id='swapped' src='G_5.jpg' height='90'> <img id='swapped'  src='G_2.jpg' height='90'> <img src='G_1.jpg' height='90'> <img src='G_4.jpg' height='90'> <img src='G_3.jpg' height='90'> <img src='G_6.jpg' height='90'> <img src='G_7.jpg' height='90'>","2","Learning example 1",""
"","","","","","html-button-response","123","1382470","0.0-117.0","32","1","2025-01-25 16:32:09","af8d355d56820e421d246a7037deb6e6","104.218.199.238","Mozilla/5.0 (Windows NT 10.0; Win64; x64) AppleWebKit/537.36 (KHTML, like Gecko) Chrome/127.0.0.0 Safari/537.36","WebKit","Chrome","127.0.0.0","Windows","10.0","https://app.prolific.com/","en-US,en;q=0.9","66986c9ad97d2e5ff07329c1","67949641171f97c04e14fb34","679511e1ed9c3a2d60180cae","","null","<img  src='G_8.jpg' height='90'> <img  src='G_5.jpg' height='90'> <img   src='G_2.jpg' height='90'> <img src='G_1.jpg' height='90'> <img src='G_4.jpg' height='90'> <img src='G_3.jpg' height='90'> <img src='G_6.jpg' height='90'> <img src='G_7.jpg' height='90'>","null","Learning example 1",""
"","","","","","html-button-response","124","1382880","0.0-118.0","32","1","2025-01-25 16:32:09","af8d355d56820e421d246a7037deb6e6","104.218.199.238","Mozilla/5.0 (Windows NT 10.0; Win64; x64) AppleWebKit/537.36 (KHTML, like Gecko) Chrome/127.0.0.0 Safari/537.36","WebKit","Chrome","127.0.0.0","Windows","10.0","https://app.prolific.com/","en-US,en;q=0.9","66986c9ad97d2e5ff07329c1","67949641171f97c04e14fb34","679511e1ed9c3a2d60180cae","","null","<img id='selected'  src='G_8.jpg' height='90'> <img  src='G_5.jpg' height='90'> <img   src='G_2.jpg' height='90'> <img src='G_1.jpg' height='90'> <img src='G_4.jpg' height='90'> <img src='G_3.jpg' height='90'> <img src='G_6.jpg' height='90'> <img src='G_7.jpg' height='90'>","null","Learning example 1",""
"","","","","","html-button-response","125","1383192","0.0-119.0","32","1","2025-01-25 16:32:09","af8d355d56820e421d246a7037deb6e6","104.218.199.238","Mozilla/5.0 (Windows NT 10.0; Win64; x64) AppleWebKit/537.36 (KHTML, like Gecko) Chrome/127.0.0.0 Safari/537.36","WebKit","Chrome","127.0.0.0","Windows","10.0","https://app.prolific.com/","en-US,en;q=0.9","66986c9ad97d2e5ff07329c1","67949641171f97c04e14fb34","679511e1ed9c3a2d60180cae","","null","<img id='selected'  src='G_8.jpg' height='90'> <img id='selected'  src='G_5.jpg' height='90'> <img   src='G_2.jpg' height='90'> <img src='G_1.jpg' height='90'> <img src='G_4.jpg' height='90'> <img src='G_3.jpg' height='90'> <img src='G_6.jpg' height='90'> <img src='G_7.jpg' height='90'>","null","Learning example 1",""
"","","","","","html-button-response","126","1383504","0.0-120.0","32","1","2025-01-25 16:32:09","af8d355d56820e421d246a7037deb6e6","104.218.199.238","Mozilla/5.0 (Windows NT 10.0; Win64; x64) AppleWebKit/537.36 (KHTML, like Gecko) Chrome/127.0.0.0 Safari/537.36","WebKit","Chrome","127.0.0.0","Windows","10.0","https://app.prolific.com/","en-US,en;q=0.9","66986c9ad97d2e5ff07329c1","67949641171f97c04e14fb34","679511e1ed9c3a2d60180cae","","null","<img id='swapped'  src='G_5.jpg' height='90'> <img id='swapped'  src='G_8.jpg' height='90'> <img   src='G_2.jpg' height='90'> <img src='G_1.jpg' height='90'> <img src='G_4.jpg' height='90'> <img src='G_3.jpg' height='90'> <img src='G_6.jpg' height='90'> <img src='G_7.jpg' height='90'>","null","Learning example 1",""
"","","","","","html-button-response","127","1384402","0.0-121.0-0.0-0.0","32","1","2025-01-25 16:32:09","af8d355d56820e421d246a7037deb6e6","104.218.199.238","Mozilla/5.0 (Windows NT 10.0; Win64; x64) AppleWebKit/537.36 (KHTML, like Gecko) Chrome/127.0.0.0 Safari/537.36","WebKit","Chrome","127.0.0.0","Windows","10.0","https://app.prolific.com/","en-US,en;q=0.9","66986c9ad97d2e5ff07329c1","67949641171f97c04e14fb34","679511e1ed9c3a2d60180cae","","885","<img id='swapped'  src='G_5.jpg' height='90'> <img id='swapped'  src='G_8.jpg' height='90'> <img   src='G_2.jpg' height='90'> <img src='G_1.jpg' height='90'> <img src='G_4.jpg' height='90'> <img src='G_3.jpg' height='90'> <img src='G_6.jpg' height='90'> <img src='G_7.jpg' height='90'>","0","Learning example 1",""
"","","","","","html-button-response","128","1385139","0.0-121.1-0.1-0.1","32","1","2025-01-25 16:32:09","af8d355d56820e421d246a7037deb6e6","104.218.199.238","Mozilla/5.0 (Windows NT 10.0; Win64; x64) AppleWebKit/537.36 (KHTML, like Gecko) Chrome/127.0.0.0 Safari/537.36","WebKit","Chrome","127.0.0.0","Windows","10.0","https://app.prolific.com/","en-US,en;q=0.9","66986c9ad97d2e5ff07329c1","67949641171f97c04e14fb34","679511e1ed9c3a2d60180cae","","723","<img id='swapped'  src='G_5.jpg' height='90'> <img id='swapped'  src='G_8.jpg' height='90'> <img   src='G_2.jpg' height='90'> <img src='G_1.jpg' height='90'> <img src='G_4.jpg' height='90'> <img src='G_3.jpg' height='90'> <img src='G_6.jpg' height='90'> <img src='G_7.jpg' height='90'>","1","Learning example 1",""
"","","","","","html-button-response","129","1385353","0.0-122.0","32","1","2025-01-25 16:32:09","af8d355d56820e421d246a7037deb6e6","104.218.199.238","Mozilla/5.0 (Windows NT 10.0; Win64; x64) AppleWebKit/537.36 (KHTML, like Gecko) Chrome/127.0.0.0 Safari/537.36","WebKit","Chrome","127.0.0.0","Windows","10.0","https://app.prolific.com/","en-US,en;q=0.9","66986c9ad97d2e5ff07329c1","67949641171f97c04e14fb34","679511e1ed9c3a2d60180cae","","null","<img   src='G_5.jpg' height='90'> <img   src='G_8.jpg' height='90'> <img   src='G_2.jpg' height='90'> <img src='G_1.jpg' height='90'> <img src='G_4.jpg' height='90'> <img src='G_3.jpg' height='90'> <img src='G_6.jpg' height='90'> <img src='G_7.jpg' height='90'>","null","Learning example 1",""
"","","","","","html-button-response","130","1385760","0.0-123.0","32","1","2025-01-25 16:32:09","af8d355d56820e421d246a7037deb6e6","104.218.199.238","Mozilla/5.0 (Windows NT 10.0; Win64; x64) AppleWebKit/537.36 (KHTML, like Gecko) Chrome/127.0.0.0 Safari/537.36","WebKit","Chrome","127.0.0.0","Windows","10.0","https://app.prolific.com/","en-US,en;q=0.9","66986c9ad97d2e5ff07329c1","67949641171f97c04e14fb34","679511e1ed9c3a2d60180cae","","null","<img   src='G_5.jpg' height='90'> <img   src='G_8.jpg' height='90'> <img id='selected'   src='G_2.jpg' height='90'> <img src='G_1.jpg' height='90'> <img src='G_4.jpg' height='90'> <img src='G_3.jpg' height='90'> <img src='G_6.jpg' height='90'> <img src='G_7.jpg' height='90'>","null","Learning example 1",""
"","","","","","html-button-response","131","1386071","0.0-124.0","32","1","2025-01-25 16:32:09","af8d355d56820e421d246a7037deb6e6","104.218.199.238","Mozilla/5.0 (Windows NT 10.0; Win64; x64) AppleWebKit/537.36 (KHTML, like Gecko) Chrome/127.0.0.0 Safari/537.36","WebKit","Chrome","127.0.0.0","Windows","10.0","https://app.prolific.com/","en-US,en;q=0.9","66986c9ad97d2e5ff07329c1","67949641171f97c04e14fb34","679511e1ed9c3a2d60180cae","","null","<img   src='G_5.jpg' height='90'> <img   src='G_8.jpg' height='90'> <img id='selected'   src='G_2.jpg' height='90'> <img id='selected' src='G_1.jpg' height='90'> <img src='G_4.jpg' height='90'> <img src='G_3.jpg' height='90'> <img src='G_6.jpg' height='90'> <img src='G_7.jpg' height='90'>","null","Learning example 1",""
"","","","","","html-button-response","132","1386383","0.0-125.0","32","1","2025-01-25 16:32:09","af8d355d56820e421d246a7037deb6e6","104.218.199.238","Mozilla/5.0 (Windows NT 10.0; Win64; x64) AppleWebKit/537.36 (KHTML, like Gecko) Chrome/127.0.0.0 Safari/537.36","WebKit","Chrome","127.0.0.0","Windows","10.0","https://app.prolific.com/","en-US,en;q=0.9","66986c9ad97d2e5ff07329c1","67949641171f97c04e14fb34","679511e1ed9c3a2d60180cae","","null","<img   src='G_5.jpg' height='90'> <img   src='G_8.jpg' height='90'> <img id='swapped' src='G_1.jpg' height='90'> <img id='swapped'   src='G_2.jpg' height='90'> <img src='G_4.jpg' height='90'> <img src='G_3.jpg' height='90'> <img src='G_6.jpg' height='90'> <img src='G_7.jpg' height='90'>","null","Learning example 1",""
"","","","","","html-button-response","133","1387070","0.0-126.0-0.0-0.0","32","1","2025-01-25 16:32:09","af8d355d56820e421d246a7037deb6e6","104.218.199.238","Mozilla/5.0 (Windows NT 10.0; Win64; x64) AppleWebKit/537.36 (KHTML, like Gecko) Chrome/127.0.0.0 Safari/537.36","WebKit","Chrome","127.0.0.0","Windows","10.0","https://app.prolific.com/","en-US,en;q=0.9","66986c9ad97d2e5ff07329c1","67949641171f97c04e14fb34","679511e1ed9c3a2d60180cae","","676","<img   src='G_5.jpg' height='90'> <img   src='G_8.jpg' height='90'> <img id='swapped' src='G_1.jpg' height='90'> <img id='swapped'   src='G_2.jpg' height='90'> <img src='G_4.jpg' height='90'> <img src='G_3.jpg' height='90'> <img src='G_6.jpg' height='90'> <img src='G_7.jpg' height='90'>","2","Learning example 1",""
"","","","","","html-button-response","134","1387790","0.0-126.1-0.1-0.1","32","1","2025-01-25 16:32:09","af8d355d56820e421d246a7037deb6e6","104.218.199.238","Mozilla/5.0 (Windows NT 10.0; Win64; x64) AppleWebKit/537.36 (KHTML, like Gecko) Chrome/127.0.0.0 Safari/537.36","WebKit","Chrome","127.0.0.0","Windows","10.0","https://app.prolific.com/","en-US,en;q=0.9","66986c9ad97d2e5ff07329c1","67949641171f97c04e14fb34","679511e1ed9c3a2d60180cae","","711","<img   src='G_5.jpg' height='90'> <img   src='G_8.jpg' height='90'> <img id='swapped' src='G_1.jpg' height='90'> <img id='swapped'   src='G_2.jpg' height='90'> <img src='G_4.jpg' height='90'> <img src='G_3.jpg' height='90'> <img src='G_6.jpg' height='90'> <img src='G_7.jpg' height='90'>","3","Learning example 1",""
"","","","","","html-button-response","135","1388002","0.0-127.0","32","1","2025-01-25 16:32:09","af8d355d56820e421d246a7037deb6e6","104.218.199.238","Mozilla/5.0 (Windows NT 10.0; Win64; x64) AppleWebKit/537.36 (KHTML, like Gecko) Chrome/127.0.0.0 Safari/537.36","WebKit","Chrome","127.0.0.0","Windows","10.0","https://app.prolific.com/","en-US,en;q=0.9","66986c9ad97d2e5ff07329c1","67949641171f97c04e14fb34","679511e1ed9c3a2d60180cae","","null","<img   src='G_5.jpg' height='90'> <img   src='G_8.jpg' height='90'> <img  src='G_1.jpg' height='90'> <img    src='G_2.jpg' height='90'> <img src='G_4.jpg' height='90'> <img src='G_3.jpg' height='90'> <img src='G_6.jpg' height='90'> <img src='G_7.jpg' height='90'>","null","Learning example 1",""
"","","","","","html-button-response","136","1388413","0.0-128.0","32","1","2025-01-25 16:32:09","af8d355d56820e421d246a7037deb6e6","104.218.199.238","Mozilla/5.0 (Windows NT 10.0; Win64; x64) AppleWebKit/537.36 (KHTML, like Gecko) Chrome/127.0.0.0 Safari/537.36","WebKit","Chrome","127.0.0.0","Windows","10.0","https://app.prolific.com/","en-US,en;q=0.9","66986c9ad97d2e5ff07329c1","67949641171f97c04e14fb34","679511e1ed9c3a2d60180cae","","null","<img   src='G_5.jpg' height='90'> <img id='selected'   src='G_8.jpg' height='90'> <img  src='G_1.jpg' height='90'> <img    src='G_2.jpg' height='90'> <img src='G_4.jpg' height='90'> <img src='G_3.jpg' height='90'> <img src='G_6.jpg' height='90'> <img src='G_7.jpg' height='90'>","null","Learning example 1",""
"","","","","","html-button-response","137","1388726","0.0-129.0","32","1","2025-01-25 16:32:09","af8d355d56820e421d246a7037deb6e6","104.218.199.238","Mozilla/5.0 (Windows NT 10.0; Win64; x64) AppleWebKit/537.36 (KHTML, like Gecko) Chrome/127.0.0.0 Safari/537.36","WebKit","Chrome","127.0.0.0","Windows","10.0","https://app.prolific.com/","en-US,en;q=0.9","66986c9ad97d2e5ff07329c1","67949641171f97c04e14fb34","679511e1ed9c3a2d60180cae","","null","<img   src='G_5.jpg' height='90'> <img id='selected'   src='G_8.jpg' height='90'> <img id='selected'  src='G_1.jpg' height='90'> <img    src='G_2.jpg' height='90'> <img src='G_4.jpg' height='90'> <img src='G_3.jpg' height='90'> <img src='G_6.jpg' height='90'> <img src='G_7.jpg' height='90'>","null","Learning example 1",""
"","","","","","html-button-response","138","1389037","0.0-130.0","32","1","2025-01-25 16:32:09","af8d355d56820e421d246a7037deb6e6","104.218.199.238","Mozilla/5.0 (Windows NT 10.0; Win64; x64) AppleWebKit/537.36 (KHTML, like Gecko) Chrome/127.0.0.0 Safari/537.36","WebKit","Chrome","127.0.0.0","Windows","10.0","https://app.prolific.com/","en-US,en;q=0.9","66986c9ad97d2e5ff07329c1","67949641171f97c04e14fb34","679511e1ed9c3a2d60180cae","","null","<img   src='G_5.jpg' height='90'> <img id='swapped'  src='G_1.jpg' height='90'> <img id='swapped'   src='G_8.jpg' height='90'> <img    src='G_2.jpg' height='90'> <img src='G_4.jpg' height='90'> <img src='G_3.jpg' height='90'> <img src='G_6.jpg' height='90'> <img src='G_7.jpg' height='90'>","null","Learning example 1",""
