"success","timeout","failed_images","failed_audio","failed_video","trial_type","trial_index","time_elapsed","internal_node_id","run_id","condition","recorded_at","source_code_version","ip","user_agent","device","browser","browser_version","platform","platform_version","referer","accept_language","PROLIFIC_PID","STUDY_ID","SESSION_ID","view_history","rt","stimulus","response","phase","question_order"
"true","false","[]","[]","[]","preload","0","4220","0.0-0.0","33","1","2025-01-25 16:32:45","af8d355d56820e421d246a7037deb6e6","212.32.121.76","Mozilla/5.0 (Windows NT 10.0; Win64; x64) AppleWebKit/537.36 (KHTML, like Gecko) Chrome/131.0.0.0 Safari/537.36","WebKit","Chrome","131.0.0.0","Windows","10.0","https://app.prolific.com/","en-US,en;q=0.9","6791c19c19747d9082192f15","67949641171f97c04e14fb34","6795120ea0f394292f9c7f51","","","","","",""
"","","","","","instructions","1","10147","0.0-1.0","33","1","2025-01-25 16:32:45","af8d355d56820e421d246a7037deb6e6","212.32.121.76","Mozilla/5.0 (Windows NT 10.0; Win64; x64) AppleWebKit/537.36 (KHTML, like Gecko) Chrome/131.0.0.0 Safari/537.36","WebKit","Chrome","131.0.0.0","Windows","10.0","https://app.prolific.com/","en-US,en;q=0.9","6791c19c19747d9082192f15","67949641171f97c04e14fb34","6795120ea0f394292f9c7f51","[{""page_index"":0,""viewing_time"":5920}]","5921","","","",""
"","","","","","html-keyboard-response","2","10666","0.0-2.0","33","1","2025-01-25 16:32:45","af8d355d56820e421d246a7037deb6e6","212.32.121.76","Mozilla/5.0 (Windows NT 10.0; Win64; x64) AppleWebKit/537.36 (KHTML, like Gecko) Chrome/131.0.0.0 Safari/537.36","WebKit","Chrome","131.0.0.0","Windows","10.0","https://app.prolific.com/","en-US,en;q=0.9","6791c19c19747d9082192f15","67949641171f97c04e14fb34","6795120ea0f394292f9c7f51","","null","<p> + <p/>","null","",""
"","","","","","instructions","3","54732","0.0-3.0","33","1","2025-01-25 16:32:45","af8d355d56820e421d246a7037deb6e6","212.32.121.76","Mozilla/5.0 (Windows NT 10.0; Win64; x64) AppleWebKit/537.36 (KHTML, like Gecko) Chrome/131.0.0.0 Safari/537.36","WebKit","Chrome","131.0.0.0","Windows","10.0","https://app.prolific.com/","en-US,en;q=0.9","6791c19c19747d9082192f15","67949641171f97c04e14fb34","6795120ea0f394292f9c7f51","[{""page_index"":0,""viewing_time"":6958},{""page_index"":1,""viewing_time"":24176},{""page_index"":2,""viewing_time"":10752},{""page_index"":3,""viewing_time"":1574},{""page_index"":4,""viewing_time"":601}]","44062","","","",""
"","","","","","html-button-response","4","59403","0.0-4.0-0.0-0.0","33","1","2025-01-25 16:32:45","af8d355d56820e421d246a7037deb6e6","212.32.121.76","Mozilla/5.0 (Windows NT 10.0; Win64; x64) AppleWebKit/537.36 (KHTML, like Gecko) Chrome/131.0.0.0 Safari/537.36","WebKit","Chrome","131.0.0.0","Windows","10.0","https://app.prolific.com/","en-US,en;q=0.9","6791c19c19747d9082192f15","67949641171f97c04e14fb34","6795120ea0f394292f9c7f51","","4667","","5","Intro Trial",""
"","","","","","html-keyboard-response","5","67454","0.0-5.0","33","1","2025-01-25 16:32:45","af8d355d56820e421d246a7037deb6e6","212.32.121.76","Mozilla/5.0 (Windows NT 10.0; Win64; x64) AppleWebKit/537.36 (KHTML, like Gecko) Chrome/131.0.0.0 Safari/537.36","WebKit","Chrome","131.0.0.0","Windows","10.0","https://app.prolific.com/","en-US,en;q=0.9","6791c19c19747d9082192f15","67949641171f97c04e14fb34","6795120ea0f394292f9c7f51","","8048","[""You sorted incorrectly by using the balance 0 times. <br><br> <img src='G_1.jpg' height='90'><img src='G_2.jpg' height='90'><img src='G_3.jpg' height='90'><img src='G_4.jpg' height='90'><img src='G_5.jpg' height='90'><br><br> Your final order is 4,2,3,5,1<br><br><br>Omgne Sort in this game will allow you to sort correctly by using the balance 8 times. Press Enter to learn it!""]","enter","",""
"","","","","","html-keyboard-response","6","68201","0.0-6.0","33","1","2025-01-25 16:32:45","af8d355d56820e421d246a7037deb6e6","212.32.121.76","Mozilla/5.0 (Windows NT 10.0; Win64; x64) AppleWebKit/537.36 (KHTML, like Gecko) Chrome/131.0.0.0 Safari/537.36","WebKit","Chrome","131.0.0.0","Windows","10.0","https://app.prolific.com/","en-US,en;q=0.9","6791c19c19747d9082192f15","67949641171f97c04e14fb34","6795120ea0f394292f9c7f51","","746","<p>Welcome to the learning phase! <br><br> You will learn by six examples. The following learning trials will not be used to calculate your performance. <br><br> Press Enter to continue.<p/>","enter","",""
"","","","","","html-keyboard-response","7","68653","0.0-7.0","33","1","2025-01-25 16:32:45","af8d355d56820e421d246a7037deb6e6","212.32.121.76","Mozilla/5.0 (Windows NT 10.0; Win64; x64) AppleWebKit/537.36 (KHTML, like Gecko) Chrome/131.0.0.0 Safari/537.36","WebKit","Chrome","131.0.0.0","Windows","10.0","https://app.prolific.com/","en-US,en;q=0.9","6791c19c19747d9082192f15","67949641171f97c04e14fb34","6795120ea0f394292f9c7f51","","451","[""Example 1<br><br>You will watch Omnge Sort in action. Try to identify any patterns in the comparisons made by this method. <br><br>Press Enter to continue.""]","enter","",""
"","","","","","html-keyboard-response","8","69172","0.0-8.0","33","1","2025-01-25 16:32:45","af8d355d56820e421d246a7037deb6e6","212.32.121.76","Mozilla/5.0 (Windows NT 10.0; Win64; x64) AppleWebKit/537.36 (KHTML, like Gecko) Chrome/131.0.0.0 Safari/537.36","WebKit","Chrome","131.0.0.0","Windows","10.0","https://app.prolific.com/","en-US,en;q=0.9","6791c19c19747d9082192f15","67949641171f97c04e14fb34","6795120ea0f394292f9c7f51","","null","<img id='selected' src='G_5.jpg' height='90'> <img src='G_7.jpg' height='90'> <img src='G_1.jpg' height='90'> <img src='G_9.jpg' height='90'> <img src='G_3.jpg' height='90'>","null","Animation0",""
"","","","","","html-keyboard-response","9","69687","0.0-9.0","33","1","2025-01-25 16:32:45","af8d355d56820e421d246a7037deb6e6","212.32.121.76","Mozilla/5.0 (Windows NT 10.0; Win64; x64) AppleWebKit/537.36 (KHTML, like Gecko) Chrome/131.0.0.0 Safari/537.36","WebKit","Chrome","131.0.0.0","Windows","10.0","https://app.prolific.com/","en-US,en;q=0.9","6791c19c19747d9082192f15","67949641171f97c04e14fb34","6795120ea0f394292f9c7f51","","null","<img id='selected' src='G_5.jpg' height='90'> <img id='selected' src='G_7.jpg' height='90'> <img src='G_1.jpg' height='90'> <img src='G_9.jpg' height='90'> <img src='G_3.jpg' height='90'>","null","Animation0",""
"","","","","","html-keyboard-response","10","70214","0.0-10.0","33","1","2025-01-25 16:32:45","af8d355d56820e421d246a7037deb6e6","212.32.121.76","Mozilla/5.0 (Windows NT 10.0; Win64; x64) AppleWebKit/537.36 (KHTML, like Gecko) Chrome/131.0.0.0 Safari/537.36","WebKit","Chrome","131.0.0.0","Windows","10.0","https://app.prolific.com/","en-US,en;q=0.9","6791c19c19747d9082192f15","67949641171f97c04e14fb34","6795120ea0f394292f9c7f51","","null","<img id='swapped' src='G_7.jpg' height='90'> <img id='swapped' src='G_5.jpg' height='90'> <img src='G_1.jpg' height='90'> <img src='G_9.jpg' height='90'> <img src='G_3.jpg' height='90'>","null","Animation0",""
"","","","","","html-keyboard-response","11","70535","0.0-11.0","33","1","2025-01-25 16:32:45","af8d355d56820e421d246a7037deb6e6","212.32.121.76","Mozilla/5.0 (Windows NT 10.0; Win64; x64) AppleWebKit/537.36 (KHTML, like Gecko) Chrome/131.0.0.0 Safari/537.36","WebKit","Chrome","131.0.0.0","Windows","10.0","https://app.prolific.com/","en-US,en;q=0.9","6791c19c19747d9082192f15","67949641171f97c04e14fb34","6795120ea0f394292f9c7f51","","null","<img  src='G_7.jpg' height='90'> <img  src='G_5.jpg' height='90'> <img src='G_1.jpg' height='90'> <img src='G_9.jpg' height='90'> <img src='G_3.jpg' height='90'>","null","Animation0",""
"","","","","","html-keyboard-response","12","71050","0.0-12.0","33","1","2025-01-25 16:32:45","af8d355d56820e421d246a7037deb6e6","212.32.121.76","Mozilla/5.0 (Windows NT 10.0; Win64; x64) AppleWebKit/537.36 (KHTML, like Gecko) Chrome/131.0.0.0 Safari/537.36","WebKit","Chrome","131.0.0.0","Windows","10.0","https://app.prolific.com/","en-US,en;q=0.9","6791c19c19747d9082192f15","67949641171f97c04e14fb34","6795120ea0f394292f9c7f51","","null","<img  src='G_7.jpg' height='90'> <img id='selected'  src='G_5.jpg' height='90'> <img src='G_1.jpg' height='90'> <img src='G_9.jpg' height='90'> <img src='G_3.jpg' height='90'>","null","Animation0",""
"","","","","","html-keyboard-response","13","71561","0.0-13.0","33","1","2025-01-25 16:32:45","af8d355d56820e421d246a7037deb6e6","212.32.121.76","Mozilla/5.0 (Windows NT 10.0; Win64; x64) AppleWebKit/537.36 (KHTML, like Gecko) Chrome/131.0.0.0 Safari/537.36","WebKit","Chrome","131.0.0.0","Windows","10.0","https://app.prolific.com/","en-US,en;q=0.9","6791c19c19747d9082192f15","67949641171f97c04e14fb34","6795120ea0f394292f9c7f51","","null","<img  src='G_7.jpg' height='90'> <img id='selected'  src='G_5.jpg' height='90'> <img id='selected' src='G_1.jpg' height='90'> <img src='G_9.jpg' height='90'> <img src='G_3.jpg' height='90'>","null","Animation0",""
"","","","","","html-keyboard-response","14","72071","0.0-14.0","33","1","2025-01-25 16:32:45","af8d355d56820e421d246a7037deb6e6","212.32.121.76","Mozilla/5.0 (Windows NT 10.0; Win64; x64) AppleWebKit/537.36 (KHTML, like Gecko) Chrome/131.0.0.0 Safari/537.36","WebKit","Chrome","131.0.0.0","Windows","10.0","https://app.prolific.com/","en-US,en;q=0.9","6791c19c19747d9082192f15","67949641171f97c04e14fb34","6795120ea0f394292f9c7f51","","null","<img  src='G_7.jpg' height='90'> <img id='selected'  src='G_5.jpg' height='90'> <img id='selected' src='G_1.jpg' height='90'> <img src='G_9.jpg' height='90'> <img src='G_3.jpg' height='90'>","null","Animation0",""
"","","","","","html-keyboard-response","15","72381","0.0-15.0","33","1","2025-01-25 16:32:45","af8d355d56820e421d246a7037deb6e6","212.32.121.76","Mozilla/5.0 (Windows NT 10.0; Win64; x64) AppleWebKit/537.36 (KHTML, like Gecko) Chrome/131.0.0.0 Safari/537.36","WebKit","Chrome","131.0.0.0","Windows","10.0","https://app.prolific.com/","en-US,en;q=0.9","6791c19c19747d9082192f15","67949641171f97c04e14fb34","6795120ea0f394292f9c7f51","","null","<img  src='G_7.jpg' height='90'> <img   src='G_5.jpg' height='90'> <img  src='G_1.jpg' height='90'> <img src='G_9.jpg' height='90'> <img src='G_3.jpg' height='90'>","null","Animation0",""
"","","","","","html-keyboard-response","16","72892","0.0-16.0","33","1","2025-01-25 16:32:45","af8d355d56820e421d246a7037deb6e6","212.32.121.76","Mozilla/5.0 (Windows NT 10.0; Win64; x64) AppleWebKit/537.36 (KHTML, like Gecko) Chrome/131.0.0.0 Safari/537.36","WebKit","Chrome","131.0.0.0","Windows","10.0","https://app.prolific.com/","en-US,en;q=0.9","6791c19c19747d9082192f15","67949641171f97c04e14fb34","6795120ea0f394292f9c7f51","","null","<img  src='G_7.jpg' height='90'> <img   src='G_5.jpg' height='90'> <img id='selected'  src='G_1.jpg' height='90'> <img src='G_9.jpg' height='90'> <img src='G_3.jpg' height='90'>","null","Animation0",""
"","","","","","html-keyboard-response","17","73398","0.0-17.0","33","1","2025-01-25 16:32:45","af8d355d56820e421d246a7037deb6e6","212.32.121.76","Mozilla/5.0 (Windows NT 10.0; Win64; x64) AppleWebKit/537.36 (KHTML, like Gecko) Chrome/131.0.0.0 Safari/537.36","WebKit","Chrome","131.0.0.0","Windows","10.0","https://app.prolific.com/","en-US,en;q=0.9","6791c19c19747d9082192f15","67949641171f97c04e14fb34","6795120ea0f394292f9c7f51","","null","<img  src='G_7.jpg' height='90'> <img   src='G_5.jpg' height='90'> <img id='selected'  src='G_1.jpg' height='90'> <img id='selected' src='G_9.jpg' height='90'> <img src='G_3.jpg' height='90'>","null","Animation0",""
"","","","","","html-keyboard-response","18","73906","0.0-18.0","33","1","2025-01-25 16:32:45","af8d355d56820e421d246a7037deb6e6","212.32.121.76","Mozilla/5.0 (Windows NT 10.0; Win64; x64) AppleWebKit/537.36 (KHTML, like Gecko) Chrome/131.0.0.0 Safari/537.36","WebKit","Chrome","131.0.0.0","Windows","10.0","https://app.prolific.com/","en-US,en;q=0.9","6791c19c19747d9082192f15","67949641171f97c04e14fb34","6795120ea0f394292f9c7f51","","null","<img  src='G_7.jpg' height='90'> <img   src='G_5.jpg' height='90'> <img id='selected'  src='G_1.jpg' height='90'> <img id='selected' src='G_9.jpg' height='90'> <img src='G_3.jpg' height='90'>","null","Animation0",""
"","","","","","html-keyboard-response","19","74219","0.0-19.0","33","1","2025-01-25 16:32:45","af8d355d56820e421d246a7037deb6e6","212.32.121.76","Mozilla/5.0 (Windows NT 10.0; Win64; x64) AppleWebKit/537.36 (KHTML, like Gecko) Chrome/131.0.0.0 Safari/537.36","WebKit","Chrome","131.0.0.0","Windows","10.0","https://app.prolific.com/","en-US,en;q=0.9","6791c19c19747d9082192f15","67949641171f97c04e14fb34","6795120ea0f394292f9c7f51","","null","<img  src='G_7.jpg' height='90'> <img   src='G_5.jpg' height='90'> <img   src='G_1.jpg' height='90'> <img  src='G_9.jpg' height='90'> <img src='G_3.jpg' height='90'>","null","Animation0",""
"","","","","","html-keyboard-response","20","74733","0.0-20.0","33","1","2025-01-25 16:32:45","af8d355d56820e421d246a7037deb6e6","212.32.121.76","Mozilla/5.0 (Windows NT 10.0; Win64; x64) AppleWebKit/537.36 (KHTML, like Gecko) Chrome/131.0.0.0 Safari/537.36","WebKit","Chrome","131.0.0.0","Windows","10.0","https://app.prolific.com/","en-US,en;q=0.9","6791c19c19747d9082192f15","67949641171f97c04e14fb34","6795120ea0f394292f9c7f51","","null","<img  src='G_7.jpg' height='90'> <img   src='G_5.jpg' height='90'> <img   src='G_1.jpg' height='90'> <img id='selected'  src='G_9.jpg' height='90'> <img src='G_3.jpg' height='90'>","null","Animation0",""
"","","","","","html-keyboard-response","21","75258","0.0-21.0","33","1","2025-01-25 16:32:45","af8d355d56820e421d246a7037deb6e6","212.32.121.76","Mozilla/5.0 (Windows NT 10.0; Win64; x64) AppleWebKit/537.36 (KHTML, like Gecko) Chrome/131.0.0.0 Safari/537.36","WebKit","Chrome","131.0.0.0","Windows","10.0","https://app.prolific.com/","en-US,en;q=0.9","6791c19c19747d9082192f15","67949641171f97c04e14fb34","6795120ea0f394292f9c7f51","","null","<img  src='G_7.jpg' height='90'> <img   src='G_5.jpg' height='90'> <img   src='G_1.jpg' height='90'> <img id='selected'  src='G_9.jpg' height='90'> <img id='selected' src='G_3.jpg' height='90'>","null","Animation0",""
"","","","","","html-keyboard-response","22","75778","0.0-22.0","33","1","2025-01-25 16:32:45","af8d355d56820e421d246a7037deb6e6","212.32.121.76","Mozilla/5.0 (Windows NT 10.0; Win64; x64) AppleWebKit/537.36 (KHTML, like Gecko) Chrome/131.0.0.0 Safari/537.36","WebKit","Chrome","131.0.0.0","Windows","10.0","https://app.prolific.com/","en-US,en;q=0.9","6791c19c19747d9082192f15","67949641171f97c04e14fb34","6795120ea0f394292f9c7f51","","null","<img  src='G_7.jpg' height='90'> <img   src='G_5.jpg' height='90'> <img   src='G_1.jpg' height='90'> <img id='selected'  src='G_9.jpg' height='90'> <img id='selected' src='G_3.jpg' height='90'>","null","Animation0",""
"","","","","","html-keyboard-response","23","76101","0.0-23.0","33","1","2025-01-25 16:32:45","af8d355d56820e421d246a7037deb6e6","212.32.121.76","Mozilla/5.0 (Windows NT 10.0; Win64; x64) AppleWebKit/537.36 (KHTML, like Gecko) Chrome/131.0.0.0 Safari/537.36","WebKit","Chrome","131.0.0.0","Windows","10.0","https://app.prolific.com/","en-US,en;q=0.9","6791c19c19747d9082192f15","67949641171f97c04e14fb34","6795120ea0f394292f9c7f51","","null","<img  src='G_7.jpg' height='90'> <img   src='G_5.jpg' height='90'> <img   src='G_1.jpg' height='90'> <img   src='G_9.jpg' height='90'> <img  src='G_3.jpg' height='90'>","null","Animation0",""
"","","","","","html-keyboard-response","24","79118","0.0-24.0","33","1","2025-01-25 16:32:45","af8d355d56820e421d246a7037deb6e6","212.32.121.76","Mozilla/5.0 (Windows NT 10.0; Win64; x64) AppleWebKit/537.36 (KHTML, like Gecko) Chrome/131.0.0.0 Safari/537.36","WebKit","Chrome","131.0.0.0","Windows","10.0","https://app.prolific.com/","en-US,en;q=0.9","6791c19c19747d9082192f15","67949641171f97c04e14fb34","6795120ea0f394292f9c7f51","","3011","[""Did you notice any patterns? <br><br>Press Enter to watch that example again and follow the steps of Omgne Sort.""]","enter","",""
"","","","","","html-button-response","25","79534","0.0-25.0","33","1","2025-01-25 16:32:45","af8d355d56820e421d246a7037deb6e6","212.32.121.76","Mozilla/5.0 (Windows NT 10.0; Win64; x64) AppleWebKit/537.36 (KHTML, like Gecko) Chrome/131.0.0.0 Safari/537.36","WebKit","Chrome","131.0.0.0","Windows","10.0","https://app.prolific.com/","en-US,en;q=0.9","6791c19c19747d9082192f15","67949641171f97c04e14fb34","6795120ea0f394292f9c7f51","","null","<img id='selected' src='G_5.jpg' height='90'> <img src='G_7.jpg' height='90'> <img src='G_1.jpg' height='90'> <img src='G_9.jpg' height='90'> <img src='G_3.jpg' height='90'>","null","Learning example 0",""
"","","","","","html-button-response","26","79860","0.0-26.0","33","1","2025-01-25 16:32:45","af8d355d56820e421d246a7037deb6e6","212.32.121.76","Mozilla/5.0 (Windows NT 10.0; Win64; x64) AppleWebKit/537.36 (KHTML, like Gecko) Chrome/131.0.0.0 Safari/537.36","WebKit","Chrome","131.0.0.0","Windows","10.0","https://app.prolific.com/","en-US,en;q=0.9","6791c19c19747d9082192f15","67949641171f97c04e14fb34","6795120ea0f394292f9c7f51","","null","<img id='selected' src='G_5.jpg' height='90'> <img id='selected' src='G_7.jpg' height='90'> <img src='G_1.jpg' height='90'> <img src='G_9.jpg' height='90'> <img src='G_3.jpg' height='90'>","null","Learning example 0",""
"","","","","","html-button-response","27","80183","0.0-27.0","33","1","2025-01-25 16:32:45","af8d355d56820e421d246a7037deb6e6","212.32.121.76","Mozilla/5.0 (Windows NT 10.0; Win64; x64) AppleWebKit/537.36 (KHTML, like Gecko) Chrome/131.0.0.0 Safari/537.36","WebKit","Chrome","131.0.0.0","Windows","10.0","https://app.prolific.com/","en-US,en;q=0.9","6791c19c19747d9082192f15","67949641171f97c04e14fb34","6795120ea0f394292f9c7f51","","null","<img id='swapped' src='G_7.jpg' height='90'> <img id='swapped' src='G_5.jpg' height='90'> <img src='G_1.jpg' height='90'> <img src='G_9.jpg' height='90'> <img src='G_3.jpg' height='90'>","null","Learning example 0",""
"","","","","","html-button-response","28","85490","0.0-28.0-0.0-0.0","33","1","2025-01-25 16:32:45","af8d355d56820e421d246a7037deb6e6","212.32.121.76","Mozilla/5.0 (Windows NT 10.0; Win64; x64) AppleWebKit/537.36 (KHTML, like Gecko) Chrome/131.0.0.0 Safari/537.36","WebKit","Chrome","131.0.0.0","Windows","10.0","https://app.prolific.com/","en-US,en;q=0.9","6791c19c19747d9082192f15","67949641171f97c04e14fb34","6795120ea0f394292f9c7f51","","5292","<img id='swapped' src='G_7.jpg' height='90'> <img id='swapped' src='G_5.jpg' height='90'> <img src='G_1.jpg' height='90'> <img src='G_9.jpg' height='90'> <img src='G_3.jpg' height='90'>","1","Learning example 0",""
"","","","","","html-button-response","29","89667","0.0-28.1-0.1-0.1","33","1","2025-01-25 16:32:45","af8d355d56820e421d246a7037deb6e6","212.32.121.76","Mozilla/5.0 (Windows NT 10.0; Win64; x64) AppleWebKit/537.36 (KHTML, like Gecko) Chrome/131.0.0.0 Safari/537.36","WebKit","Chrome","131.0.0.0","Windows","10.0","https://app.prolific.com/","en-US,en;q=0.9","6791c19c19747d9082192f15","67949641171f97c04e14fb34","6795120ea0f394292f9c7f51","","4172","<img id='swapped' src='G_7.jpg' height='90'> <img id='swapped' src='G_5.jpg' height='90'> <img src='G_1.jpg' height='90'> <img src='G_9.jpg' height='90'> <img src='G_3.jpg' height='90'>","0","Learning example 0",""
"","","","","","html-button-response","30","89882","0.0-29.0","33","1","2025-01-25 16:32:45","af8d355d56820e421d246a7037deb6e6","212.32.121.76","Mozilla/5.0 (Windows NT 10.0; Win64; x64) AppleWebKit/537.36 (KHTML, like Gecko) Chrome/131.0.0.0 Safari/537.36","WebKit","Chrome","131.0.0.0","Windows","10.0","https://app.prolific.com/","en-US,en;q=0.9","6791c19c19747d9082192f15","67949641171f97c04e14fb34","6795120ea0f394292f9c7f51","","null","<img  src='G_7.jpg' height='90'> <img  src='G_5.jpg' height='90'> <img src='G_1.jpg' height='90'> <img src='G_9.jpg' height='90'> <img src='G_3.jpg' height='90'>","null","Learning example 0",""
"","","","","","html-button-response","31","90297","0.0-30.0","33","1","2025-01-25 16:32:45","af8d355d56820e421d246a7037deb6e6","212.32.121.76","Mozilla/5.0 (Windows NT 10.0; Win64; x64) AppleWebKit/537.36 (KHTML, like Gecko) Chrome/131.0.0.0 Safari/537.36","WebKit","Chrome","131.0.0.0","Windows","10.0","https://app.prolific.com/","en-US,en;q=0.9","6791c19c19747d9082192f15","67949641171f97c04e14fb34","6795120ea0f394292f9c7f51","","null","<img  src='G_7.jpg' height='90'> <img id='selected'  src='G_5.jpg' height='90'> <img src='G_1.jpg' height='90'> <img src='G_9.jpg' height='90'> <img src='G_3.jpg' height='90'>","null","Learning example 0",""
"","","","","","html-button-response","32","90610","0.0-31.0","33","1","2025-01-25 16:32:45","af8d355d56820e421d246a7037deb6e6","212.32.121.76","Mozilla/5.0 (Windows NT 10.0; Win64; x64) AppleWebKit/537.36 (KHTML, like Gecko) Chrome/131.0.0.0 Safari/537.36","WebKit","Chrome","131.0.0.0","Windows","10.0","https://app.prolific.com/","en-US,en;q=0.9","6791c19c19747d9082192f15","67949641171f97c04e14fb34","6795120ea0f394292f9c7f51","","null","<img  src='G_7.jpg' height='90'> <img id='selected'  src='G_5.jpg' height='90'> <img id='selected' src='G_1.jpg' height='90'> <img src='G_9.jpg' height='90'> <img src='G_3.jpg' height='90'>","null","Learning example 0",""
"","","","","","html-button-response","33","90915","0.0-32.0","33","1","2025-01-25 16:32:45","af8d355d56820e421d246a7037deb6e6","212.32.121.76","Mozilla/5.0 (Windows NT 10.0; Win64; x64) AppleWebKit/537.36 (KHTML, like Gecko) Chrome/131.0.0.0 Safari/537.36","WebKit","Chrome","131.0.0.0","Windows","10.0","https://app.prolific.com/","en-US,en;q=0.9","6791c19c19747d9082192f15","67949641171f97c04e14fb34","6795120ea0f394292f9c7f51","","null","<img  src='G_7.jpg' height='90'> <img id='selected'  src='G_5.jpg' height='90'> <img id='selected' src='G_1.jpg' height='90'> <img src='G_9.jpg' height='90'> <img src='G_3.jpg' height='90'>","null","Learning example 0",""
"","","","","","html-button-response","34","96602","0.0-33.0-0.0-0.0","33","1","2025-01-25 16:32:45","af8d355d56820e421d246a7037deb6e6","212.32.121.76","Mozilla/5.0 (Windows NT 10.0; Win64; x64) AppleWebKit/537.36 (KHTML, like Gecko) Chrome/131.0.0.0 Safari/537.36","WebKit","Chrome","131.0.0.0","Windows","10.0","https://app.prolific.com/","en-US,en;q=0.9","6791c19c19747d9082192f15","67949641171f97c04e14fb34","6795120ea0f394292f9c7f51","","5685","<img  src='G_7.jpg' height='90'> <img id='selected'  src='G_5.jpg' height='90'> <img id='selected' src='G_1.jpg' height='90'> <img src='G_9.jpg' height='90'> <img src='G_3.jpg' height='90'>","2","Learning example 0",""
"","","","","","html-button-response","35","98027","0.0-33.1-0.1-0.1","33","1","2025-01-25 16:32:45","af8d355d56820e421d246a7037deb6e6","212.32.121.76","Mozilla/5.0 (Windows NT 10.0; Win64; x64) AppleWebKit/537.36 (KHTML, like Gecko) Chrome/131.0.0.0 Safari/537.36","WebKit","Chrome","131.0.0.0","Windows","10.0","https://app.prolific.com/","en-US,en;q=0.9","6791c19c19747d9082192f15","67949641171f97c04e14fb34","6795120ea0f394292f9c7f51","","1421","<img  src='G_7.jpg' height='90'> <img id='selected'  src='G_5.jpg' height='90'> <img id='selected' src='G_1.jpg' height='90'> <img src='G_9.jpg' height='90'> <img src='G_3.jpg' height='90'>","1","Learning example 0",""
"","","","","","html-button-response","36","98241","0.0-34.0","33","1","2025-01-25 16:32:45","af8d355d56820e421d246a7037deb6e6","212.32.121.76","Mozilla/5.0 (Windows NT 10.0; Win64; x64) AppleWebKit/537.36 (KHTML, like Gecko) Chrome/131.0.0.0 Safari/537.36","WebKit","Chrome","131.0.0.0","Windows","10.0","https://app.prolific.com/","en-US,en;q=0.9","6791c19c19747d9082192f15","67949641171f97c04e14fb34","6795120ea0f394292f9c7f51","","null","<img  src='G_7.jpg' height='90'> <img   src='G_5.jpg' height='90'> <img  src='G_1.jpg' height='90'> <img src='G_9.jpg' height='90'> <img src='G_3.jpg' height='90'>","null","Learning example 0",""
"","","","","","html-button-response","37","98653","0.0-35.0","33","1","2025-01-25 16:32:45","af8d355d56820e421d246a7037deb6e6","212.32.121.76","Mozilla/5.0 (Windows NT 10.0; Win64; x64) AppleWebKit/537.36 (KHTML, like Gecko) Chrome/131.0.0.0 Safari/537.36","WebKit","Chrome","131.0.0.0","Windows","10.0","https://app.prolific.com/","en-US,en;q=0.9","6791c19c19747d9082192f15","67949641171f97c04e14fb34","6795120ea0f394292f9c7f51","","null","<img  src='G_7.jpg' height='90'> <img   src='G_5.jpg' height='90'> <img id='selected'  src='G_1.jpg' height='90'> <img src='G_9.jpg' height='90'> <img src='G_3.jpg' height='90'>","null","Learning example 0",""
"","","","","","html-button-response","38","98961","0.0-36.0","33","1","2025-01-25 16:32:45","af8d355d56820e421d246a7037deb6e6","212.32.121.76","Mozilla/5.0 (Windows NT 10.0; Win64; x64) AppleWebKit/537.36 (KHTML, like Gecko) Chrome/131.0.0.0 Safari/537.36","WebKit","Chrome","131.0.0.0","Windows","10.0","https://app.prolific.com/","en-US,en;q=0.9","6791c19c19747d9082192f15","67949641171f97c04e14fb34","6795120ea0f394292f9c7f51","","null","<img  src='G_7.jpg' height='90'> <img   src='G_5.jpg' height='90'> <img id='selected'  src='G_1.jpg' height='90'> <img id='selected' src='G_9.jpg' height='90'> <img src='G_3.jpg' height='90'>","null","Learning example 0",""
"","","","","","html-button-response","39","99272","0.0-37.0","33","1","2025-01-25 16:32:45","af8d355d56820e421d246a7037deb6e6","212.32.121.76","Mozilla/5.0 (Windows NT 10.0; Win64; x64) AppleWebKit/537.36 (KHTML, like Gecko) Chrome/131.0.0.0 Safari/537.36","WebKit","Chrome","131.0.0.0","Windows","10.0","https://app.prolific.com/","en-US,en;q=0.9","6791c19c19747d9082192f15","67949641171f97c04e14fb34","6795120ea0f394292f9c7f51","","null","<img  src='G_7.jpg' height='90'> <img   src='G_5.jpg' height='90'> <img id='selected'  src='G_1.jpg' height='90'> <img id='selected' src='G_9.jpg' height='90'> <img src='G_3.jpg' height='90'>","null","Learning example 0",""
"","","","","","html-button-response","40","101298","0.0-38.0-0.0-0.0","33","1","2025-01-25 16:32:45","af8d355d56820e421d246a7037deb6e6","212.32.121.76","Mozilla/5.0 (Windows NT 10.0; Win64; x64) AppleWebKit/537.36 (KHTML, like Gecko) Chrome/131.0.0.0 Safari/537.36","WebKit","Chrome","131.0.0.0","Windows","10.0","https://app.prolific.com/","en-US,en;q=0.9","6791c19c19747d9082192f15","67949641171f97c04e14fb34","6795120ea0f394292f9c7f51","","2012","<img  src='G_7.jpg' height='90'> <img   src='G_5.jpg' height='90'> <img id='selected'  src='G_1.jpg' height='90'> <img id='selected' src='G_9.jpg' height='90'> <img src='G_3.jpg' height='90'>","2","Learning example 0",""
"","","","","","html-button-response","41","102307","0.0-38.1-0.1-0.1","33","1","2025-01-25 16:32:45","af8d355d56820e421d246a7037deb6e6","212.32.121.76","Mozilla/5.0 (Windows NT 10.0; Win64; x64) AppleWebKit/537.36 (KHTML, like Gecko) Chrome/131.0.0.0 Safari/537.36","WebKit","Chrome","131.0.0.0","Windows","10.0","https://app.prolific.com/","en-US,en;q=0.9","6791c19c19747d9082192f15","67949641171f97c04e14fb34","6795120ea0f394292f9c7f51","","1005","<img  src='G_7.jpg' height='90'> <img   src='G_5.jpg' height='90'> <img id='selected'  src='G_1.jpg' height='90'> <img id='selected' src='G_9.jpg' height='90'> <img src='G_3.jpg' height='90'>","3","Learning example 0",""
"","","","","","html-button-response","42","102519","0.0-39.0","33","1","2025-01-25 16:32:45","af8d355d56820e421d246a7037deb6e6","212.32.121.76","Mozilla/5.0 (Windows NT 10.0; Win64; x64) AppleWebKit/537.36 (KHTML, like Gecko) Chrome/131.0.0.0 Safari/537.36","WebKit","Chrome","131.0.0.0","Windows","10.0","https://app.prolific.com/","en-US,en;q=0.9","6791c19c19747d9082192f15","67949641171f97c04e14fb34","6795120ea0f394292f9c7f51","","null","<img  src='G_7.jpg' height='90'> <img   src='G_5.jpg' height='90'> <img   src='G_1.jpg' height='90'> <img  src='G_9.jpg' height='90'> <img src='G_3.jpg' height='90'>","null","Learning example 0",""
"","","","","","html-button-response","43","102939","0.0-40.0","33","1","2025-01-25 16:32:45","af8d355d56820e421d246a7037deb6e6","212.32.121.76","Mozilla/5.0 (Windows NT 10.0; Win64; x64) AppleWebKit/537.36 (KHTML, like Gecko) Chrome/131.0.0.0 Safari/537.36","WebKit","Chrome","131.0.0.0","Windows","10.0","https://app.prolific.com/","en-US,en;q=0.9","6791c19c19747d9082192f15","67949641171f97c04e14fb34","6795120ea0f394292f9c7f51","","null","<img  src='G_7.jpg' height='90'> <img   src='G_5.jpg' height='90'> <img   src='G_1.jpg' height='90'> <img id='selected'  src='G_9.jpg' height='90'> <img src='G_3.jpg' height='90'>","null","Learning example 0",""
"","","","","","html-button-response","44","103255","0.0-41.0","33","1","2025-01-25 16:32:45","af8d355d56820e421d246a7037deb6e6","212.32.121.76","Mozilla/5.0 (Windows NT 10.0; Win64; x64) AppleWebKit/537.36 (KHTML, like Gecko) Chrome/131.0.0.0 Safari/537.36","WebKit","Chrome","131.0.0.0","Windows","10.0","https://app.prolific.com/","en-US,en;q=0.9","6791c19c19747d9082192f15","67949641171f97c04e14fb34","6795120ea0f394292f9c7f51","","null","<img  src='G_7.jpg' height='90'> <img   src='G_5.jpg' height='90'> <img   src='G_1.jpg' height='90'> <img id='selected'  src='G_9.jpg' height='90'> <img id='selected' src='G_3.jpg' height='90'>","null","Learning example 0",""
"","","","","","html-button-response","45","103569","0.0-42.0","33","1","2025-01-25 16:32:45","af8d355d56820e421d246a7037deb6e6","212.32.121.76","Mozilla/5.0 (Windows NT 10.0; Win64; x64) AppleWebKit/537.36 (KHTML, like Gecko) Chrome/131.0.0.0 Safari/537.36","WebKit","Chrome","131.0.0.0","Windows","10.0","https://app.prolific.com/","en-US,en;q=0.9","6791c19c19747d9082192f15","67949641171f97c04e14fb34","6795120ea0f394292f9c7f51","","null","<img  src='G_7.jpg' height='90'> <img   src='G_5.jpg' height='90'> <img   src='G_1.jpg' height='90'> <img id='selected'  src='G_9.jpg' height='90'> <img id='selected' src='G_3.jpg' height='90'>","null","Learning example 0",""
"","","","","","html-button-response","46","104931","0.0-43.0-0.0-0.0","33","1","2025-01-25 16:32:45","af8d355d56820e421d246a7037deb6e6","212.32.121.76","Mozilla/5.0 (Windows NT 10.0; Win64; x64) AppleWebKit/537.36 (KHTML, like Gecko) Chrome/131.0.0.0 Safari/537.36","WebKit","Chrome","131.0.0.0","Windows","10.0","https://app.prolific.com/","en-US,en;q=0.9","6791c19c19747d9082192f15","67949641171f97c04e14fb34","6795120ea0f394292f9c7f51","","1353","<img  src='G_7.jpg' height='90'> <img   src='G_5.jpg' height='90'> <img   src='G_1.jpg' height='90'> <img id='selected'  src='G_9.jpg' height='90'> <img id='selected' src='G_3.jpg' height='90'>","3","Learning example 0",""
"","","","","","html-button-response","47","106035","0.0-43.1-0.1-0.1","33","1","2025-01-25 16:32:45","af8d355d56820e421d246a7037deb6e6","212.32.121.76","Mozilla/5.0 (Windows NT 10.0; Win64; x64) AppleWebKit/537.36 (KHTML, like Gecko) Chrome/131.0.0.0 Safari/537.36","WebKit","Chrome","131.0.0.0","Windows","10.0","https://app.prolific.com/","en-US,en;q=0.9","6791c19c19747d9082192f15","67949641171f97c04e14fb34","6795120ea0f394292f9c7f51","","1100","<img  src='G_7.jpg' height='90'> <img   src='G_5.jpg' height='90'> <img   src='G_1.jpg' height='90'> <img id='selected'  src='G_9.jpg' height='90'> <img id='selected' src='G_3.jpg' height='90'>","4","Learning example 0",""
"","","","","","html-button-response","48","106251","0.0-44.0","33","1","2025-01-25 16:32:45","af8d355d56820e421d246a7037deb6e6","212.32.121.76","Mozilla/5.0 (Windows NT 10.0; Win64; x64) AppleWebKit/537.36 (KHTML, like Gecko) Chrome/131.0.0.0 Safari/537.36","WebKit","Chrome","131.0.0.0","Windows","10.0","https://app.prolific.com/","en-US,en;q=0.9","6791c19c19747d9082192f15","67949641171f97c04e14fb34","6795120ea0f394292f9c7f51","","null","<img  src='G_7.jpg' height='90'> <img   src='G_5.jpg' height='90'> <img   src='G_1.jpg' height='90'> <img   src='G_9.jpg' height='90'> <img  src='G_3.jpg' height='90'>","null","Learning example 0",""
"","","","","","html-keyboard-response","49","110708","0.0-45.0","33","1","2025-01-25 16:32:45","af8d355d56820e421d246a7037deb6e6","212.32.121.76","Mozilla/5.0 (Windows NT 10.0; Win64; x64) AppleWebKit/537.36 (KHTML, like Gecko) Chrome/131.0.0.0 Safari/537.36","WebKit","Chrome","131.0.0.0","Windows","10.0","https://app.prolific.com/","en-US,en;q=0.9","6791c19c19747d9082192f15","67949641171f97c04e14fb34","6795120ea0f394292f9c7f51","","4450","[""Final order was 1,2,3,4,5. The initial order was 2,1,3,4,5.<br>It took 1 swaps to sort it correctly with Omgne Sort. <br><br>Press Enter to continue.""]","enter","",""
"","","","","","html-keyboard-response","50","111684","0.0-46.0","33","1","2025-01-25 16:32:45","af8d355d56820e421d246a7037deb6e6","212.32.121.76","Mozilla/5.0 (Windows NT 10.0; Win64; x64) AppleWebKit/537.36 (KHTML, like Gecko) Chrome/131.0.0.0 Safari/537.36","WebKit","Chrome","131.0.0.0","Windows","10.0","https://app.prolific.com/","en-US,en;q=0.9","6791c19c19747d9082192f15","67949641171f97c04e14fb34","6795120ea0f394292f9c7f51","","974","[""Example 2<br><br>You will watch Omnge Sort in action. Try to identify any patterns in the comparisons made by this method. <br><br>Press Enter to continue.""]","enter","",""
"","","","","","html-keyboard-response","51","112197","0.0-47.0","33","1","2025-01-25 16:32:45","af8d355d56820e421d246a7037deb6e6","212.32.121.76","Mozilla/5.0 (Windows NT 10.0; Win64; x64) AppleWebKit/537.36 (KHTML, like Gecko) Chrome/131.0.0.0 Safari/537.36","WebKit","Chrome","131.0.0.0","Windows","10.0","https://app.prolific.com/","en-US,en;q=0.9","6791c19c19747d9082192f15","67949641171f97c04e14fb34","6795120ea0f394292f9c7f51","","null","<img id='selected' src='G_4.jpg' height='90'> <img src='G_1.jpg' height='90'> <img src='G_7.jpg' height='90'> <img src='G_5.jpg' height='90'> <img src='G_8.jpg' height='90'> <img src='G_6.jpg' height='90'> <img src='G_3.jpg' height='90'> <img src='G_2.jpg' height='90'>","null","Animation1",""
"","","","","","html-keyboard-response","52","112714","0.0-48.0","33","1","2025-01-25 16:32:45","af8d355d56820e421d246a7037deb6e6","212.32.121.76","Mozilla/5.0 (Windows NT 10.0; Win64; x64) AppleWebKit/537.36 (KHTML, like Gecko) Chrome/131.0.0.0 Safari/537.36","WebKit","Chrome","131.0.0.0","Windows","10.0","https://app.prolific.com/","en-US,en;q=0.9","6791c19c19747d9082192f15","67949641171f97c04e14fb34","6795120ea0f394292f9c7f51","","null","<img id='selected' src='G_4.jpg' height='90'> <img id='selected' src='G_1.jpg' height='90'> <img src='G_7.jpg' height='90'> <img src='G_5.jpg' height='90'> <img src='G_8.jpg' height='90'> <img src='G_6.jpg' height='90'> <img src='G_3.jpg' height='90'> <img src='G_2.jpg' height='90'>","null","Animation1",""
"","","","","","html-keyboard-response","53","113221","0.0-49.0","33","1","2025-01-25 16:32:45","af8d355d56820e421d246a7037deb6e6","212.32.121.76","Mozilla/5.0 (Windows NT 10.0; Win64; x64) AppleWebKit/537.36 (KHTML, like Gecko) Chrome/131.0.0.0 Safari/537.36","WebKit","Chrome","131.0.0.0","Windows","10.0","https://app.prolific.com/","en-US,en;q=0.9","6791c19c19747d9082192f15","67949641171f97c04e14fb34","6795120ea0f394292f9c7f51","","null","<img id='selected' src='G_4.jpg' height='90'> <img id='selected' src='G_1.jpg' height='90'> <img src='G_7.jpg' height='90'> <img src='G_5.jpg' height='90'> <img src='G_8.jpg' height='90'> <img src='G_6.jpg' height='90'> <img src='G_3.jpg' height='90'> <img src='G_2.jpg' height='90'>","null","Animation1",""
"","","","","","html-keyboard-response","54","113542","0.0-50.0","33","1","2025-01-25 16:32:45","af8d355d56820e421d246a7037deb6e6","212.32.121.76","Mozilla/5.0 (Windows NT 10.0; Win64; x64) AppleWebKit/537.36 (KHTML, like Gecko) Chrome/131.0.0.0 Safari/537.36","WebKit","Chrome","131.0.0.0","Windows","10.0","https://app.prolific.com/","en-US,en;q=0.9","6791c19c19747d9082192f15","67949641171f97c04e14fb34","6795120ea0f394292f9c7f51","","null","<img  src='G_4.jpg' height='90'> <img  src='G_1.jpg' height='90'> <img src='G_7.jpg' height='90'> <img src='G_5.jpg' height='90'> <img src='G_8.jpg' height='90'> <img src='G_6.jpg' height='90'> <img src='G_3.jpg' height='90'> <img src='G_2.jpg' height='90'>","null","Animation1",""
"","","","","","html-keyboard-response","55","114061","0.0-51.0","33","1","2025-01-25 16:32:45","af8d355d56820e421d246a7037deb6e6","212.32.121.76","Mozilla/5.0 (Windows NT 10.0; Win64; x64) AppleWebKit/537.36 (KHTML, like Gecko) Chrome/131.0.0.0 Safari/537.36","WebKit","Chrome","131.0.0.0","Windows","10.0","https://app.prolific.com/","en-US,en;q=0.9","6791c19c19747d9082192f15","67949641171f97c04e14fb34","6795120ea0f394292f9c7f51","","null","<img  src='G_4.jpg' height='90'> <img id='selected'  src='G_1.jpg' height='90'> <img src='G_7.jpg' height='90'> <img src='G_5.jpg' height='90'> <img src='G_8.jpg' height='90'> <img src='G_6.jpg' height='90'> <img src='G_3.jpg' height='90'> <img src='G_2.jpg' height='90'>","null","Animation1",""
"","","","","","html-keyboard-response","56","114568","0.0-52.0","33","1","2025-01-25 16:32:45","af8d355d56820e421d246a7037deb6e6","212.32.121.76","Mozilla/5.0 (Windows NT 10.0; Win64; x64) AppleWebKit/537.36 (KHTML, like Gecko) Chrome/131.0.0.0 Safari/537.36","WebKit","Chrome","131.0.0.0","Windows","10.0","https://app.prolific.com/","en-US,en;q=0.9","6791c19c19747d9082192f15","67949641171f97c04e14fb34","6795120ea0f394292f9c7f51","","null","<img  src='G_4.jpg' height='90'> <img id='selected'  src='G_1.jpg' height='90'> <img id='selected' src='G_7.jpg' height='90'> <img src='G_5.jpg' height='90'> <img src='G_8.jpg' height='90'> <img src='G_6.jpg' height='90'> <img src='G_3.jpg' height='90'> <img src='G_2.jpg' height='90'>","null","Animation1",""
"","","","","","html-keyboard-response","57","115079","0.0-53.0","33","1","2025-01-25 16:32:45","af8d355d56820e421d246a7037deb6e6","212.32.121.76","Mozilla/5.0 (Windows NT 10.0; Win64; x64) AppleWebKit/537.36 (KHTML, like Gecko) Chrome/131.0.0.0 Safari/537.36","WebKit","Chrome","131.0.0.0","Windows","10.0","https://app.prolific.com/","en-US,en;q=0.9","6791c19c19747d9082192f15","67949641171f97c04e14fb34","6795120ea0f394292f9c7f51","","null","<img  src='G_4.jpg' height='90'> <img id='swapped' src='G_7.jpg' height='90'> <img id='swapped'  src='G_1.jpg' height='90'> <img src='G_5.jpg' height='90'> <img src='G_8.jpg' height='90'> <img src='G_6.jpg' height='90'> <img src='G_3.jpg' height='90'> <img src='G_2.jpg' height='90'>","null","Animation1",""
"","","","","","html-keyboard-response","58","115401","0.0-54.0","33","1","2025-01-25 16:32:45","af8d355d56820e421d246a7037deb6e6","212.32.121.76","Mozilla/5.0 (Windows NT 10.0; Win64; x64) AppleWebKit/537.36 (KHTML, like Gecko) Chrome/131.0.0.0 Safari/537.36","WebKit","Chrome","131.0.0.0","Windows","10.0","https://app.prolific.com/","en-US,en;q=0.9","6791c19c19747d9082192f15","67949641171f97c04e14fb34","6795120ea0f394292f9c7f51","","null","<img  src='G_4.jpg' height='90'> <img  src='G_7.jpg' height='90'> <img   src='G_1.jpg' height='90'> <img src='G_5.jpg' height='90'> <img src='G_8.jpg' height='90'> <img src='G_6.jpg' height='90'> <img src='G_3.jpg' height='90'> <img src='G_2.jpg' height='90'>","null","Animation1",""
"","","","","","html-keyboard-response","59","115917","0.0-55.0","33","1","2025-01-25 16:32:45","af8d355d56820e421d246a7037deb6e6","212.32.121.76","Mozilla/5.0 (Windows NT 10.0; Win64; x64) AppleWebKit/537.36 (KHTML, like Gecko) Chrome/131.0.0.0 Safari/537.36","WebKit","Chrome","131.0.0.0","Windows","10.0","https://app.prolific.com/","en-US,en;q=0.9","6791c19c19747d9082192f15","67949641171f97c04e14fb34","6795120ea0f394292f9c7f51","","null","<img id='selected'  src='G_4.jpg' height='90'> <img  src='G_7.jpg' height='90'> <img   src='G_1.jpg' height='90'> <img src='G_5.jpg' height='90'> <img src='G_8.jpg' height='90'> <img src='G_6.jpg' height='90'> <img src='G_3.jpg' height='90'> <img src='G_2.jpg' height='90'>","null","Animation1",""
"","","","","","html-keyboard-response","60","116426","0.0-56.0","33","1","2025-01-25 16:32:45","af8d355d56820e421d246a7037deb6e6","212.32.121.76","Mozilla/5.0 (Windows NT 10.0; Win64; x64) AppleWebKit/537.36 (KHTML, like Gecko) Chrome/131.0.0.0 Safari/537.36","WebKit","Chrome","131.0.0.0","Windows","10.0","https://app.prolific.com/","en-US,en;q=0.9","6791c19c19747d9082192f15","67949641171f97c04e14fb34","6795120ea0f394292f9c7f51","","null","<img id='selected'  src='G_4.jpg' height='90'> <img id='selected'  src='G_7.jpg' height='90'> <img   src='G_1.jpg' height='90'> <img src='G_5.jpg' height='90'> <img src='G_8.jpg' height='90'> <img src='G_6.jpg' height='90'> <img src='G_3.jpg' height='90'> <img src='G_2.jpg' height='90'>","null","Animation1",""
"","","","","","html-keyboard-response","61","116941","0.0-57.0","33","1","2025-01-25 16:32:45","af8d355d56820e421d246a7037deb6e6","212.32.121.76","Mozilla/5.0 (Windows NT 10.0; Win64; x64) AppleWebKit/537.36 (KHTML, like Gecko) Chrome/131.0.0.0 Safari/537.36","WebKit","Chrome","131.0.0.0","Windows","10.0","https://app.prolific.com/","en-US,en;q=0.9","6791c19c19747d9082192f15","67949641171f97c04e14fb34","6795120ea0f394292f9c7f51","","null","<img id='swapped'  src='G_7.jpg' height='90'> <img id='swapped'  src='G_4.jpg' height='90'> <img   src='G_1.jpg' height='90'> <img src='G_5.jpg' height='90'> <img src='G_8.jpg' height='90'> <img src='G_6.jpg' height='90'> <img src='G_3.jpg' height='90'> <img src='G_2.jpg' height='90'>","null","Animation1",""
"","","","","","html-keyboard-response","62","117265","0.0-58.0","33","1","2025-01-25 16:32:45","af8d355d56820e421d246a7037deb6e6","212.32.121.76","Mozilla/5.0 (Windows NT 10.0; Win64; x64) AppleWebKit/537.36 (KHTML, like Gecko) Chrome/131.0.0.0 Safari/537.36","WebKit","Chrome","131.0.0.0","Windows","10.0","https://app.prolific.com/","en-US,en;q=0.9","6791c19c19747d9082192f15","67949641171f97c04e14fb34","6795120ea0f394292f9c7f51","","null","<img   src='G_7.jpg' height='90'> <img   src='G_4.jpg' height='90'> <img   src='G_1.jpg' height='90'> <img src='G_5.jpg' height='90'> <img src='G_8.jpg' height='90'> <img src='G_6.jpg' height='90'> <img src='G_3.jpg' height='90'> <img src='G_2.jpg' height='90'>","null","Animation1",""
"","","","","","html-keyboard-response","63","117773","0.0-59.0","33","1","2025-01-25 16:32:45","af8d355d56820e421d246a7037deb6e6","212.32.121.76","Mozilla/5.0 (Windows NT 10.0; Win64; x64) AppleWebKit/537.36 (KHTML, like Gecko) Chrome/131.0.0.0 Safari/537.36","WebKit","Chrome","131.0.0.0","Windows","10.0","https://app.prolific.com/","en-US,en;q=0.9","6791c19c19747d9082192f15","67949641171f97c04e14fb34","6795120ea0f394292f9c7f51","","null","<img   src='G_7.jpg' height='90'> <img   src='G_4.jpg' height='90'> <img id='selected'   src='G_1.jpg' height='90'> <img src='G_5.jpg' height='90'> <img src='G_8.jpg' height='90'> <img src='G_6.jpg' height='90'> <img src='G_3.jpg' height='90'> <img src='G_2.jpg' height='90'>","null","Animation1",""
"","","","","","html-keyboard-response","64","118288","0.0-60.0","33","1","2025-01-25 16:32:45","af8d355d56820e421d246a7037deb6e6","212.32.121.76","Mozilla/5.0 (Windows NT 10.0; Win64; x64) AppleWebKit/537.36 (KHTML, like Gecko) Chrome/131.0.0.0 Safari/537.36","WebKit","Chrome","131.0.0.0","Windows","10.0","https://app.prolific.com/","en-US,en;q=0.9","6791c19c19747d9082192f15","67949641171f97c04e14fb34","6795120ea0f394292f9c7f51","","null","<img   src='G_7.jpg' height='90'> <img   src='G_4.jpg' height='90'> <img id='selected'   src='G_1.jpg' height='90'> <img id='selected' src='G_5.jpg' height='90'> <img src='G_8.jpg' height='90'> <img src='G_6.jpg' height='90'> <img src='G_3.jpg' height='90'> <img src='G_2.jpg' height='90'>","null","Animation1",""
"","","","","","html-keyboard-response","65","118811","0.0-61.0","33","1","2025-01-25 16:32:45","af8d355d56820e421d246a7037deb6e6","212.32.121.76","Mozilla/5.0 (Windows NT 10.0; Win64; x64) AppleWebKit/537.36 (KHTML, like Gecko) Chrome/131.0.0.0 Safari/537.36","WebKit","Chrome","131.0.0.0","Windows","10.0","https://app.prolific.com/","en-US,en;q=0.9","6791c19c19747d9082192f15","67949641171f97c04e14fb34","6795120ea0f394292f9c7f51","","null","<img   src='G_7.jpg' height='90'> <img   src='G_4.jpg' height='90'> <img id='swapped' src='G_5.jpg' height='90'> <img id='swapped'   src='G_1.jpg' height='90'> <img src='G_8.jpg' height='90'> <img src='G_6.jpg' height='90'> <img src='G_3.jpg' height='90'> <img src='G_2.jpg' height='90'>","null","Animation1",""
"","","","","","html-keyboard-response","66","119126","0.0-62.0","33","1","2025-01-25 16:32:45","af8d355d56820e421d246a7037deb6e6","212.32.121.76","Mozilla/5.0 (Windows NT 10.0; Win64; x64) AppleWebKit/537.36 (KHTML, like Gecko) Chrome/131.0.0.0 Safari/537.36","WebKit","Chrome","131.0.0.0","Windows","10.0","https://app.prolific.com/","en-US,en;q=0.9","6791c19c19747d9082192f15","67949641171f97c04e14fb34","6795120ea0f394292f9c7f51","","null","<img   src='G_7.jpg' height='90'> <img   src='G_4.jpg' height='90'> <img  src='G_5.jpg' height='90'> <img    src='G_1.jpg' height='90'> <img src='G_8.jpg' height='90'> <img src='G_6.jpg' height='90'> <img src='G_3.jpg' height='90'> <img src='G_2.jpg' height='90'>","null","Animation1",""
"","","","","","html-keyboard-response","67","119650","0.0-63.0","33","1","2025-01-25 16:32:45","af8d355d56820e421d246a7037deb6e6","212.32.121.76","Mozilla/5.0 (Windows NT 10.0; Win64; x64) AppleWebKit/537.36 (KHTML, like Gecko) Chrome/131.0.0.0 Safari/537.36","WebKit","Chrome","131.0.0.0","Windows","10.0","https://app.prolific.com/","en-US,en;q=0.9","6791c19c19747d9082192f15","67949641171f97c04e14fb34","6795120ea0f394292f9c7f51","","null","<img   src='G_7.jpg' height='90'> <img id='selected'   src='G_4.jpg' height='90'> <img  src='G_5.jpg' height='90'> <img    src='G_1.jpg' height='90'> <img src='G_8.jpg' height='90'> <img src='G_6.jpg' height='90'> <img src='G_3.jpg' height='90'> <img src='G_2.jpg' height='90'>","null","Animation1",""
"","","","","","html-keyboard-response","68","120175","0.0-64.0","33","1","2025-01-25 16:32:45","af8d355d56820e421d246a7037deb6e6","212.32.121.76","Mozilla/5.0 (Windows NT 10.0; Win64; x64) AppleWebKit/537.36 (KHTML, like Gecko) Chrome/131.0.0.0 Safari/537.36","WebKit","Chrome","131.0.0.0","Windows","10.0","https://app.prolific.com/","en-US,en;q=0.9","6791c19c19747d9082192f15","67949641171f97c04e14fb34","6795120ea0f394292f9c7f51","","null","<img   src='G_7.jpg' height='90'> <img id='selected'   src='G_4.jpg' height='90'> <img id='selected'  src='G_5.jpg' height='90'> <img    src='G_1.jpg' height='90'> <img src='G_8.jpg' height='90'> <img src='G_6.jpg' height='90'> <img src='G_3.jpg' height='90'> <img src='G_2.jpg' height='90'>","null","Animation1",""
"","","","","","html-keyboard-response","69","120690","0.0-65.0","33","1","2025-01-25 16:32:45","af8d355d56820e421d246a7037deb6e6","212.32.121.76","Mozilla/5.0 (Windows NT 10.0; Win64; x64) AppleWebKit/537.36 (KHTML, like Gecko) Chrome/131.0.0.0 Safari/537.36","WebKit","Chrome","131.0.0.0","Windows","10.0","https://app.prolific.com/","en-US,en;q=0.9","6791c19c19747d9082192f15","67949641171f97c04e14fb34","6795120ea0f394292f9c7f51","","null","<img   src='G_7.jpg' height='90'> <img id='swapped'  src='G_5.jpg' height='90'> <img id='swapped'   src='G_4.jpg' height='90'> <img    src='G_1.jpg' height='90'> <img src='G_8.jpg' height='90'> <img src='G_6.jpg' height='90'> <img src='G_3.jpg' height='90'> <img src='G_2.jpg' height='90'>","null","Animation1",""
"","","","","","html-keyboard-response","70","121009","0.0-66.0","33","1","2025-01-25 16:32:45","af8d355d56820e421d246a7037deb6e6","212.32.121.76","Mozilla/5.0 (Windows NT 10.0; Win64; x64) AppleWebKit/537.36 (KHTML, like Gecko) Chrome/131.0.0.0 Safari/537.36","WebKit","Chrome","131.0.0.0","Windows","10.0","https://app.prolific.com/","en-US,en;q=0.9","6791c19c19747d9082192f15","67949641171f97c04e14fb34","6795120ea0f394292f9c7f51","","null","<img   src='G_7.jpg' height='90'> <img   src='G_5.jpg' height='90'> <img    src='G_4.jpg' height='90'> <img    src='G_1.jpg' height='90'> <img src='G_8.jpg' height='90'> <img src='G_6.jpg' height='90'> <img src='G_3.jpg' height='90'> <img src='G_2.jpg' height='90'>","null","Animation1",""
"","","","","","html-keyboard-response","71","121513","0.0-67.0","33","1","2025-01-25 16:32:45","af8d355d56820e421d246a7037deb6e6","212.32.121.76","Mozilla/5.0 (Windows NT 10.0; Win64; x64) AppleWebKit/537.36 (KHTML, like Gecko) Chrome/131.0.0.0 Safari/537.36","WebKit","Chrome","131.0.0.0","Windows","10.0","https://app.prolific.com/","en-US,en;q=0.9","6791c19c19747d9082192f15","67949641171f97c04e14fb34","6795120ea0f394292f9c7f51","","null","<img id='selected'   src='G_7.jpg' height='90'> <img   src='G_5.jpg' height='90'> <img    src='G_4.jpg' height='90'> <img    src='G_1.jpg' height='90'> <img src='G_8.jpg' height='90'> <img src='G_6.jpg' height='90'> <img src='G_3.jpg' height='90'> <img src='G_2.jpg' height='90'>","null","Animation1",""
"","","","","","html-keyboard-response","72","122017","0.0-68.0","33","1","2025-01-25 16:32:45","af8d355d56820e421d246a7037deb6e6","212.32.121.76","Mozilla/5.0 (Windows NT 10.0; Win64; x64) AppleWebKit/537.36 (KHTML, like Gecko) Chrome/131.0.0.0 Safari/537.36","WebKit","Chrome","131.0.0.0","Windows","10.0","https://app.prolific.com/","en-US,en;q=0.9","6791c19c19747d9082192f15","67949641171f97c04e14fb34","6795120ea0f394292f9c7f51","","null","<img id='selected'   src='G_7.jpg' height='90'> <img id='selected'   src='G_5.jpg' height='90'> <img    src='G_4.jpg' height='90'> <img    src='G_1.jpg' height='90'> <img src='G_8.jpg' height='90'> <img src='G_6.jpg' height='90'> <img src='G_3.jpg' height='90'> <img src='G_2.jpg' height='90'>","null","Animation1",""
"","","","","","html-keyboard-response","73","122530","0.0-69.0","33","1","2025-01-25 16:32:45","af8d355d56820e421d246a7037deb6e6","212.32.121.76","Mozilla/5.0 (Windows NT 10.0; Win64; x64) AppleWebKit/537.36 (KHTML, like Gecko) Chrome/131.0.0.0 Safari/537.36","WebKit","Chrome","131.0.0.0","Windows","10.0","https://app.prolific.com/","en-US,en;q=0.9","6791c19c19747d9082192f15","67949641171f97c04e14fb34","6795120ea0f394292f9c7f51","","null","<img id='swapped'   src='G_5.jpg' height='90'> <img id='swapped'   src='G_7.jpg' height='90'> <img    src='G_4.jpg' height='90'> <img    src='G_1.jpg' height='90'> <img src='G_8.jpg' height='90'> <img src='G_6.jpg' height='90'> <img src='G_3.jpg' height='90'> <img src='G_2.jpg' height='90'>","null","Animation1",""
"","","","","","html-keyboard-response","74","122850","0.0-70.0","33","1","2025-01-25 16:32:45","af8d355d56820e421d246a7037deb6e6","212.32.121.76","Mozilla/5.0 (Windows NT 10.0; Win64; x64) AppleWebKit/537.36 (KHTML, like Gecko) Chrome/131.0.0.0 Safari/537.36","WebKit","Chrome","131.0.0.0","Windows","10.0","https://app.prolific.com/","en-US,en;q=0.9","6791c19c19747d9082192f15","67949641171f97c04e14fb34","6795120ea0f394292f9c7f51","","null","<img    src='G_5.jpg' height='90'> <img    src='G_7.jpg' height='90'> <img    src='G_4.jpg' height='90'> <img    src='G_1.jpg' height='90'> <img src='G_8.jpg' height='90'> <img src='G_6.jpg' height='90'> <img src='G_3.jpg' height='90'> <img src='G_2.jpg' height='90'>","null","Animation1",""
"","","","","","html-keyboard-response","75","123364","0.0-71.0","33","1","2025-01-25 16:32:45","af8d355d56820e421d246a7037deb6e6","212.32.121.76","Mozilla/5.0 (Windows NT 10.0; Win64; x64) AppleWebKit/537.36 (KHTML, like Gecko) Chrome/131.0.0.0 Safari/537.36","WebKit","Chrome","131.0.0.0","Windows","10.0","https://app.prolific.com/","en-US,en;q=0.9","6791c19c19747d9082192f15","67949641171f97c04e14fb34","6795120ea0f394292f9c7f51","","null","<img    src='G_5.jpg' height='90'> <img    src='G_7.jpg' height='90'> <img    src='G_4.jpg' height='90'> <img id='selected'    src='G_1.jpg' height='90'> <img src='G_8.jpg' height='90'> <img src='G_6.jpg' height='90'> <img src='G_3.jpg' height='90'> <img src='G_2.jpg' height='90'>","null","Animation1",""
"","","","","","html-keyboard-response","76","123871","0.0-72.0","33","1","2025-01-25 16:32:45","af8d355d56820e421d246a7037deb6e6","212.32.121.76","Mozilla/5.0 (Windows NT 10.0; Win64; x64) AppleWebKit/537.36 (KHTML, like Gecko) Chrome/131.0.0.0 Safari/537.36","WebKit","Chrome","131.0.0.0","Windows","10.0","https://app.prolific.com/","en-US,en;q=0.9","6791c19c19747d9082192f15","67949641171f97c04e14fb34","6795120ea0f394292f9c7f51","","null","<img    src='G_5.jpg' height='90'> <img    src='G_7.jpg' height='90'> <img    src='G_4.jpg' height='90'> <img id='selected'    src='G_1.jpg' height='90'> <img id='selected' src='G_8.jpg' height='90'> <img src='G_6.jpg' height='90'> <img src='G_3.jpg' height='90'> <img src='G_2.jpg' height='90'>","null","Animation1",""
"","","","","","html-keyboard-response","77","124390","0.0-73.0","33","1","2025-01-25 16:32:45","af8d355d56820e421d246a7037deb6e6","212.32.121.76","Mozilla/5.0 (Windows NT 10.0; Win64; x64) AppleWebKit/537.36 (KHTML, like Gecko) Chrome/131.0.0.0 Safari/537.36","WebKit","Chrome","131.0.0.0","Windows","10.0","https://app.prolific.com/","en-US,en;q=0.9","6791c19c19747d9082192f15","67949641171f97c04e14fb34","6795120ea0f394292f9c7f51","","null","<img    src='G_5.jpg' height='90'> <img    src='G_7.jpg' height='90'> <img    src='G_4.jpg' height='90'> <img id='swapped' src='G_8.jpg' height='90'> <img id='swapped'    src='G_1.jpg' height='90'> <img src='G_6.jpg' height='90'> <img src='G_3.jpg' height='90'> <img src='G_2.jpg' height='90'>","null","Animation1",""
"","","","","","html-keyboard-response","78","124711","0.0-74.0","33","1","2025-01-25 16:32:45","af8d355d56820e421d246a7037deb6e6","212.32.121.76","Mozilla/5.0 (Windows NT 10.0; Win64; x64) AppleWebKit/537.36 (KHTML, like Gecko) Chrome/131.0.0.0 Safari/537.36","WebKit","Chrome","131.0.0.0","Windows","10.0","https://app.prolific.com/","en-US,en;q=0.9","6791c19c19747d9082192f15","67949641171f97c04e14fb34","6795120ea0f394292f9c7f51","","null","<img    src='G_5.jpg' height='90'> <img    src='G_7.jpg' height='90'> <img    src='G_4.jpg' height='90'> <img  src='G_8.jpg' height='90'> <img     src='G_1.jpg' height='90'> <img src='G_6.jpg' height='90'> <img src='G_3.jpg' height='90'> <img src='G_2.jpg' height='90'>","null","Animation1",""
"","","","","","html-keyboard-response","79","125218","0.0-75.0","33","1","2025-01-25 16:32:45","af8d355d56820e421d246a7037deb6e6","212.32.121.76","Mozilla/5.0 (Windows NT 10.0; Win64; x64) AppleWebKit/537.36 (KHTML, like Gecko) Chrome/131.0.0.0 Safari/537.36","WebKit","Chrome","131.0.0.0","Windows","10.0","https://app.prolific.com/","en-US,en;q=0.9","6791c19c19747d9082192f15","67949641171f97c04e14fb34","6795120ea0f394292f9c7f51","","null","<img    src='G_5.jpg' height='90'> <img    src='G_7.jpg' height='90'> <img id='selected'    src='G_4.jpg' height='90'> <img  src='G_8.jpg' height='90'> <img     src='G_1.jpg' height='90'> <img src='G_6.jpg' height='90'> <img src='G_3.jpg' height='90'> <img src='G_2.jpg' height='90'>","null","Animation1",""
"","","","","","html-keyboard-response","80","125723","0.0-76.0","33","1","2025-01-25 16:32:45","af8d355d56820e421d246a7037deb6e6","212.32.121.76","Mozilla/5.0 (Windows NT 10.0; Win64; x64) AppleWebKit/537.36 (KHTML, like Gecko) Chrome/131.0.0.0 Safari/537.36","WebKit","Chrome","131.0.0.0","Windows","10.0","https://app.prolific.com/","en-US,en;q=0.9","6791c19c19747d9082192f15","67949641171f97c04e14fb34","6795120ea0f394292f9c7f51","","null","<img    src='G_5.jpg' height='90'> <img    src='G_7.jpg' height='90'> <img id='selected'    src='G_4.jpg' height='90'> <img id='selected'  src='G_8.jpg' height='90'> <img     src='G_1.jpg' height='90'> <img src='G_6.jpg' height='90'> <img src='G_3.jpg' height='90'> <img src='G_2.jpg' height='90'>","null","Animation1",""
"","","","","","html-keyboard-response","81","126233","0.0-77.0","33","1","2025-01-25 16:32:45","af8d355d56820e421d246a7037deb6e6","212.32.121.76","Mozilla/5.0 (Windows NT 10.0; Win64; x64) AppleWebKit/537.36 (KHTML, like Gecko) Chrome/131.0.0.0 Safari/537.36","WebKit","Chrome","131.0.0.0","Windows","10.0","https://app.prolific.com/","en-US,en;q=0.9","6791c19c19747d9082192f15","67949641171f97c04e14fb34","6795120ea0f394292f9c7f51","","null","<img    src='G_5.jpg' height='90'> <img    src='G_7.jpg' height='90'> <img id='swapped'  src='G_8.jpg' height='90'> <img id='swapped'    src='G_4.jpg' height='90'> <img     src='G_1.jpg' height='90'> <img src='G_6.jpg' height='90'> <img src='G_3.jpg' height='90'> <img src='G_2.jpg' height='90'>","null","Animation1",""
"","","","","","html-keyboard-response","82","126551","0.0-78.0","33","1","2025-01-25 16:32:45","af8d355d56820e421d246a7037deb6e6","212.32.121.76","Mozilla/5.0 (Windows NT 10.0; Win64; x64) AppleWebKit/537.36 (KHTML, like Gecko) Chrome/131.0.0.0 Safari/537.36","WebKit","Chrome","131.0.0.0","Windows","10.0","https://app.prolific.com/","en-US,en;q=0.9","6791c19c19747d9082192f15","67949641171f97c04e14fb34","6795120ea0f394292f9c7f51","","null","<img    src='G_5.jpg' height='90'> <img    src='G_7.jpg' height='90'> <img   src='G_8.jpg' height='90'> <img     src='G_4.jpg' height='90'> <img     src='G_1.jpg' height='90'> <img src='G_6.jpg' height='90'> <img src='G_3.jpg' height='90'> <img src='G_2.jpg' height='90'>","null","Animation1",""
"","","","","","html-keyboard-response","83","127060","0.0-79.0","33","1","2025-01-25 16:32:45","af8d355d56820e421d246a7037deb6e6","212.32.121.76","Mozilla/5.0 (Windows NT 10.0; Win64; x64) AppleWebKit/537.36 (KHTML, like Gecko) Chrome/131.0.0.0 Safari/537.36","WebKit","Chrome","131.0.0.0","Windows","10.0","https://app.prolific.com/","en-US,en;q=0.9","6791c19c19747d9082192f15","67949641171f97c04e14fb34","6795120ea0f394292f9c7f51","","null","<img    src='G_5.jpg' height='90'> <img id='selected'    src='G_7.jpg' height='90'> <img   src='G_8.jpg' height='90'> <img     src='G_4.jpg' height='90'> <img     src='G_1.jpg' height='90'> <img src='G_6.jpg' height='90'> <img src='G_3.jpg' height='90'> <img src='G_2.jpg' height='90'>","null","Animation1",""
"","","","","","html-keyboard-response","84","127578","0.0-80.0","33","1","2025-01-25 16:32:45","af8d355d56820e421d246a7037deb6e6","212.32.121.76","Mozilla/5.0 (Windows NT 10.0; Win64; x64) AppleWebKit/537.36 (KHTML, like Gecko) Chrome/131.0.0.0 Safari/537.36","WebKit","Chrome","131.0.0.0","Windows","10.0","https://app.prolific.com/","en-US,en;q=0.9","6791c19c19747d9082192f15","67949641171f97c04e14fb34","6795120ea0f394292f9c7f51","","null","<img    src='G_5.jpg' height='90'> <img id='selected'    src='G_7.jpg' height='90'> <img id='selected'   src='G_8.jpg' height='90'> <img     src='G_4.jpg' height='90'> <img     src='G_1.jpg' height='90'> <img src='G_6.jpg' height='90'> <img src='G_3.jpg' height='90'> <img src='G_2.jpg' height='90'>","null","Animation1",""
"","","","","","html-keyboard-response","85","128097","0.0-81.0","33","1","2025-01-25 16:32:45","af8d355d56820e421d246a7037deb6e6","212.32.121.76","Mozilla/5.0 (Windows NT 10.0; Win64; x64) AppleWebKit/537.36 (KHTML, like Gecko) Chrome/131.0.0.0 Safari/537.36","WebKit","Chrome","131.0.0.0","Windows","10.0","https://app.prolific.com/","en-US,en;q=0.9","6791c19c19747d9082192f15","67949641171f97c04e14fb34","6795120ea0f394292f9c7f51","","null","<img    src='G_5.jpg' height='90'> <img id='swapped'   src='G_8.jpg' height='90'> <img id='swapped'    src='G_7.jpg' height='90'> <img     src='G_4.jpg' height='90'> <img     src='G_1.jpg' height='90'> <img src='G_6.jpg' height='90'> <img src='G_3.jpg' height='90'> <img src='G_2.jpg' height='90'>","null","Animation1",""
"","","","","","html-keyboard-response","86","128426","0.0-82.0","33","1","2025-01-25 16:32:45","af8d355d56820e421d246a7037deb6e6","212.32.121.76","Mozilla/5.0 (Windows NT 10.0; Win64; x64) AppleWebKit/537.36 (KHTML, like Gecko) Chrome/131.0.0.0 Safari/537.36","WebKit","Chrome","131.0.0.0","Windows","10.0","https://app.prolific.com/","en-US,en;q=0.9","6791c19c19747d9082192f15","67949641171f97c04e14fb34","6795120ea0f394292f9c7f51","","null","<img    src='G_5.jpg' height='90'> <img    src='G_8.jpg' height='90'> <img     src='G_7.jpg' height='90'> <img     src='G_4.jpg' height='90'> <img     src='G_1.jpg' height='90'> <img src='G_6.jpg' height='90'> <img src='G_3.jpg' height='90'> <img src='G_2.jpg' height='90'>","null","Animation1",""
"","","","","","html-keyboard-response","87","128945","0.0-83.0","33","1","2025-01-25 16:32:45","af8d355d56820e421d246a7037deb6e6","212.32.121.76","Mozilla/5.0 (Windows NT 10.0; Win64; x64) AppleWebKit/537.36 (KHTML, like Gecko) Chrome/131.0.0.0 Safari/537.36","WebKit","Chrome","131.0.0.0","Windows","10.0","https://app.prolific.com/","en-US,en;q=0.9","6791c19c19747d9082192f15","67949641171f97c04e14fb34","6795120ea0f394292f9c7f51","","null","<img id='selected'    src='G_5.jpg' height='90'> <img    src='G_8.jpg' height='90'> <img     src='G_7.jpg' height='90'> <img     src='G_4.jpg' height='90'> <img     src='G_1.jpg' height='90'> <img src='G_6.jpg' height='90'> <img src='G_3.jpg' height='90'> <img src='G_2.jpg' height='90'>","null","Animation1",""
"","","","","","html-keyboard-response","88","129461","0.0-84.0","33","1","2025-01-25 16:32:45","af8d355d56820e421d246a7037deb6e6","212.32.121.76","Mozilla/5.0 (Windows NT 10.0; Win64; x64) AppleWebKit/537.36 (KHTML, like Gecko) Chrome/131.0.0.0 Safari/537.36","WebKit","Chrome","131.0.0.0","Windows","10.0","https://app.prolific.com/","en-US,en;q=0.9","6791c19c19747d9082192f15","67949641171f97c04e14fb34","6795120ea0f394292f9c7f51","","null","<img id='selected'    src='G_5.jpg' height='90'> <img id='selected'    src='G_8.jpg' height='90'> <img     src='G_7.jpg' height='90'> <img     src='G_4.jpg' height='90'> <img     src='G_1.jpg' height='90'> <img src='G_6.jpg' height='90'> <img src='G_3.jpg' height='90'> <img src='G_2.jpg' height='90'>","null","Animation1",""
"","","","","","html-keyboard-response","89","129974","0.0-85.0","33","1","2025-01-25 16:32:45","af8d355d56820e421d246a7037deb6e6","212.32.121.76","Mozilla/5.0 (Windows NT 10.0; Win64; x64) AppleWebKit/537.36 (KHTML, like Gecko) Chrome/131.0.0.0 Safari/537.36","WebKit","Chrome","131.0.0.0","Windows","10.0","https://app.prolific.com/","en-US,en;q=0.9","6791c19c19747d9082192f15","67949641171f97c04e14fb34","6795120ea0f394292f9c7f51","","null","<img id='selected'    src='G_5.jpg' height='90'> <img id='selected'    src='G_8.jpg' height='90'> <img     src='G_7.jpg' height='90'> <img     src='G_4.jpg' height='90'> <img     src='G_1.jpg' height='90'> <img src='G_6.jpg' height='90'> <img src='G_3.jpg' height='90'> <img src='G_2.jpg' height='90'>","null","Animation1",""
"","","","","","html-keyboard-response","90","130309","0.0-86.0","33","1","2025-01-25 16:32:45","af8d355d56820e421d246a7037deb6e6","212.32.121.76","Mozilla/5.0 (Windows NT 10.0; Win64; x64) AppleWebKit/537.36 (KHTML, like Gecko) Chrome/131.0.0.0 Safari/537.36","WebKit","Chrome","131.0.0.0","Windows","10.0","https://app.prolific.com/","en-US,en;q=0.9","6791c19c19747d9082192f15","67949641171f97c04e14fb34","6795120ea0f394292f9c7f51","","null","<img     src='G_5.jpg' height='90'> <img     src='G_8.jpg' height='90'> <img     src='G_7.jpg' height='90'> <img     src='G_4.jpg' height='90'> <img     src='G_1.jpg' height='90'> <img src='G_6.jpg' height='90'> <img src='G_3.jpg' height='90'> <img src='G_2.jpg' height='90'>","null","Animation1",""
"","","","","","html-keyboard-response","91","130825","0.0-87.0","33","1","2025-01-25 16:32:45","af8d355d56820e421d246a7037deb6e6","212.32.121.76","Mozilla/5.0 (Windows NT 10.0; Win64; x64) AppleWebKit/537.36 (KHTML, like Gecko) Chrome/131.0.0.0 Safari/537.36","WebKit","Chrome","131.0.0.0","Windows","10.0","https://app.prolific.com/","en-US,en;q=0.9","6791c19c19747d9082192f15","67949641171f97c04e14fb34","6795120ea0f394292f9c7f51","","null","<img     src='G_5.jpg' height='90'> <img     src='G_8.jpg' height='90'> <img     src='G_7.jpg' height='90'> <img     src='G_4.jpg' height='90'> <img id='selected'     src='G_1.jpg' height='90'> <img src='G_6.jpg' height='90'> <img src='G_3.jpg' height='90'> <img src='G_2.jpg' height='90'>","null","Animation1",""
"","","","","","html-keyboard-response","92","131336","0.0-88.0","33","1","2025-01-25 16:32:45","af8d355d56820e421d246a7037deb6e6","212.32.121.76","Mozilla/5.0 (Windows NT 10.0; Win64; x64) AppleWebKit/537.36 (KHTML, like Gecko) Chrome/131.0.0.0 Safari/537.36","WebKit","Chrome","131.0.0.0","Windows","10.0","https://app.prolific.com/","en-US,en;q=0.9","6791c19c19747d9082192f15","67949641171f97c04e14fb34","6795120ea0f394292f9c7f51","","null","<img     src='G_5.jpg' height='90'> <img     src='G_8.jpg' height='90'> <img     src='G_7.jpg' height='90'> <img     src='G_4.jpg' height='90'> <img id='selected'     src='G_1.jpg' height='90'> <img id='selected' src='G_6.jpg' height='90'> <img src='G_3.jpg' height='90'> <img src='G_2.jpg' height='90'>","null","Animation1",""
"","","","","","html-keyboard-response","93","131865","0.0-89.0","33","1","2025-01-25 16:32:45","af8d355d56820e421d246a7037deb6e6","212.32.121.76","Mozilla/5.0 (Windows NT 10.0; Win64; x64) AppleWebKit/537.36 (KHTML, like Gecko) Chrome/131.0.0.0 Safari/537.36","WebKit","Chrome","131.0.0.0","Windows","10.0","https://app.prolific.com/","en-US,en;q=0.9","6791c19c19747d9082192f15","67949641171f97c04e14fb34","6795120ea0f394292f9c7f51","","null","<img     src='G_5.jpg' height='90'> <img     src='G_8.jpg' height='90'> <img     src='G_7.jpg' height='90'> <img     src='G_4.jpg' height='90'> <img id='swapped' src='G_6.jpg' height='90'> <img id='swapped'     src='G_1.jpg' height='90'> <img src='G_3.jpg' height='90'> <img src='G_2.jpg' height='90'>","null","Animation1",""
"","","","","","html-keyboard-response","94","132188","0.0-90.0","33","1","2025-01-25 16:32:45","af8d355d56820e421d246a7037deb6e6","212.32.121.76","Mozilla/5.0 (Windows NT 10.0; Win64; x64) AppleWebKit/537.36 (KHTML, like Gecko) Chrome/131.0.0.0 Safari/537.36","WebKit","Chrome","131.0.0.0","Windows","10.0","https://app.prolific.com/","en-US,en;q=0.9","6791c19c19747d9082192f15","67949641171f97c04e14fb34","6795120ea0f394292f9c7f51","","null","<img     src='G_5.jpg' height='90'> <img     src='G_8.jpg' height='90'> <img     src='G_7.jpg' height='90'> <img     src='G_4.jpg' height='90'> <img  src='G_6.jpg' height='90'> <img      src='G_1.jpg' height='90'> <img src='G_3.jpg' height='90'> <img src='G_2.jpg' height='90'>","null","Animation1",""
"","","","","","html-keyboard-response","95","132720","0.0-91.0","33","1","2025-01-25 16:32:45","af8d355d56820e421d246a7037deb6e6","212.32.121.76","Mozilla/5.0 (Windows NT 10.0; Win64; x64) AppleWebKit/537.36 (KHTML, like Gecko) Chrome/131.0.0.0 Safari/537.36","WebKit","Chrome","131.0.0.0","Windows","10.0","https://app.prolific.com/","en-US,en;q=0.9","6791c19c19747d9082192f15","67949641171f97c04e14fb34","6795120ea0f394292f9c7f51","","null","<img     src='G_5.jpg' height='90'> <img     src='G_8.jpg' height='90'> <img     src='G_7.jpg' height='90'> <img id='selected'     src='G_4.jpg' height='90'> <img  src='G_6.jpg' height='90'> <img      src='G_1.jpg' height='90'> <img src='G_3.jpg' height='90'> <img src='G_2.jpg' height='90'>","null","Animation1",""
"","","","","","html-keyboard-response","96","133248","0.0-92.0","33","1","2025-01-25 16:32:45","af8d355d56820e421d246a7037deb6e6","212.32.121.76","Mozilla/5.0 (Windows NT 10.0; Win64; x64) AppleWebKit/537.36 (KHTML, like Gecko) Chrome/131.0.0.0 Safari/537.36","WebKit","Chrome","131.0.0.0","Windows","10.0","https://app.prolific.com/","en-US,en;q=0.9","6791c19c19747d9082192f15","67949641171f97c04e14fb34","6795120ea0f394292f9c7f51","","null","<img     src='G_5.jpg' height='90'> <img     src='G_8.jpg' height='90'> <img     src='G_7.jpg' height='90'> <img id='selected'     src='G_4.jpg' height='90'> <img id='selected'  src='G_6.jpg' height='90'> <img      src='G_1.jpg' height='90'> <img src='G_3.jpg' height='90'> <img src='G_2.jpg' height='90'>","null","Animation1",""
"","","","","","html-keyboard-response","97","133753","0.0-93.0","33","1","2025-01-25 16:32:45","af8d355d56820e421d246a7037deb6e6","212.32.121.76","Mozilla/5.0 (Windows NT 10.0; Win64; x64) AppleWebKit/537.36 (KHTML, like Gecko) Chrome/131.0.0.0 Safari/537.36","WebKit","Chrome","131.0.0.0","Windows","10.0","https://app.prolific.com/","en-US,en;q=0.9","6791c19c19747d9082192f15","67949641171f97c04e14fb34","6795120ea0f394292f9c7f51","","null","<img     src='G_5.jpg' height='90'> <img     src='G_8.jpg' height='90'> <img     src='G_7.jpg' height='90'> <img id='selected'     src='G_4.jpg' height='90'> <img id='selected'  src='G_6.jpg' height='90'> <img      src='G_1.jpg' height='90'> <img src='G_3.jpg' height='90'> <img src='G_2.jpg' height='90'>","null","Animation1",""
"","","","","","html-keyboard-response","98","134062","0.0-94.0","33","1","2025-01-25 16:32:45","af8d355d56820e421d246a7037deb6e6","212.32.121.76","Mozilla/5.0 (Windows NT 10.0; Win64; x64) AppleWebKit/537.36 (KHTML, like Gecko) Chrome/131.0.0.0 Safari/537.36","WebKit","Chrome","131.0.0.0","Windows","10.0","https://app.prolific.com/","en-US,en;q=0.9","6791c19c19747d9082192f15","67949641171f97c04e14fb34","6795120ea0f394292f9c7f51","","null","<img     src='G_5.jpg' height='90'> <img     src='G_8.jpg' height='90'> <img     src='G_7.jpg' height='90'> <img      src='G_4.jpg' height='90'> <img   src='G_6.jpg' height='90'> <img      src='G_1.jpg' height='90'> <img src='G_3.jpg' height='90'> <img src='G_2.jpg' height='90'>","null","Animation1",""
"","","","","","html-keyboard-response","99","134587","0.0-95.0","33","1","2025-01-25 16:32:45","af8d355d56820e421d246a7037deb6e6","212.32.121.76","Mozilla/5.0 (Windows NT 10.0; Win64; x64) AppleWebKit/537.36 (KHTML, like Gecko) Chrome/131.0.0.0 Safari/537.36","WebKit","Chrome","131.0.0.0","Windows","10.0","https://app.prolific.com/","en-US,en;q=0.9","6791c19c19747d9082192f15","67949641171f97c04e14fb34","6795120ea0f394292f9c7f51","","null","<img     src='G_5.jpg' height='90'> <img     src='G_8.jpg' height='90'> <img     src='G_7.jpg' height='90'> <img      src='G_4.jpg' height='90'> <img   src='G_6.jpg' height='90'> <img id='selected'      src='G_1.jpg' height='90'> <img src='G_3.jpg' height='90'> <img src='G_2.jpg' height='90'>","null","Animation1",""
"","","","","","html-keyboard-response","100","135096","0.0-96.0","33","1","2025-01-25 16:32:45","af8d355d56820e421d246a7037deb6e6","212.32.121.76","Mozilla/5.0 (Windows NT 10.0; Win64; x64) AppleWebKit/537.36 (KHTML, like Gecko) Chrome/131.0.0.0 Safari/537.36","WebKit","Chrome","131.0.0.0","Windows","10.0","https://app.prolific.com/","en-US,en;q=0.9","6791c19c19747d9082192f15","67949641171f97c04e14fb34","6795120ea0f394292f9c7f51","","null","<img     src='G_5.jpg' height='90'> <img     src='G_8.jpg' height='90'> <img     src='G_7.jpg' height='90'> <img      src='G_4.jpg' height='90'> <img   src='G_6.jpg' height='90'> <img id='selected'      src='G_1.jpg' height='90'> <img id='selected' src='G_3.jpg' height='90'> <img src='G_2.jpg' height='90'>","null","Animation1",""
"","","","","","html-keyboard-response","101","135607","0.0-97.0","33","1","2025-01-25 16:32:45","af8d355d56820e421d246a7037deb6e6","212.32.121.76","Mozilla/5.0 (Windows NT 10.0; Win64; x64) AppleWebKit/537.36 (KHTML, like Gecko) Chrome/131.0.0.0 Safari/537.36","WebKit","Chrome","131.0.0.0","Windows","10.0","https://app.prolific.com/","en-US,en;q=0.9","6791c19c19747d9082192f15","67949641171f97c04e14fb34","6795120ea0f394292f9c7f51","","null","<img     src='G_5.jpg' height='90'> <img     src='G_8.jpg' height='90'> <img     src='G_7.jpg' height='90'> <img      src='G_4.jpg' height='90'> <img   src='G_6.jpg' height='90'> <img id='selected'      src='G_1.jpg' height='90'> <img id='selected' src='G_3.jpg' height='90'> <img src='G_2.jpg' height='90'>","null","Animation1",""
"","","","","","html-keyboard-response","102","135930","0.0-98.0","33","1","2025-01-25 16:32:45","af8d355d56820e421d246a7037deb6e6","212.32.121.76","Mozilla/5.0 (Windows NT 10.0; Win64; x64) AppleWebKit/537.36 (KHTML, like Gecko) Chrome/131.0.0.0 Safari/537.36","WebKit","Chrome","131.0.0.0","Windows","10.0","https://app.prolific.com/","en-US,en;q=0.9","6791c19c19747d9082192f15","67949641171f97c04e14fb34","6795120ea0f394292f9c7f51","","null","<img     src='G_5.jpg' height='90'> <img     src='G_8.jpg' height='90'> <img     src='G_7.jpg' height='90'> <img      src='G_4.jpg' height='90'> <img   src='G_6.jpg' height='90'> <img       src='G_1.jpg' height='90'> <img  src='G_3.jpg' height='90'> <img src='G_2.jpg' height='90'>","null","Animation1",""
"","","","","","html-keyboard-response","103","136439","0.0-99.0","33","1","2025-01-25 16:32:45","af8d355d56820e421d246a7037deb6e6","212.32.121.76","Mozilla/5.0 (Windows NT 10.0; Win64; x64) AppleWebKit/537.36 (KHTML, like Gecko) Chrome/131.0.0.0 Safari/537.36","WebKit","Chrome","131.0.0.0","Windows","10.0","https://app.prolific.com/","en-US,en;q=0.9","6791c19c19747d9082192f15","67949641171f97c04e14fb34","6795120ea0f394292f9c7f51","","null","<img     src='G_5.jpg' height='90'> <img     src='G_8.jpg' height='90'> <img     src='G_7.jpg' height='90'> <img      src='G_4.jpg' height='90'> <img   src='G_6.jpg' height='90'> <img       src='G_1.jpg' height='90'> <img id='selected'  src='G_3.jpg' height='90'> <img src='G_2.jpg' height='90'>","null","Animation1",""
"","","","","","html-keyboard-response","104","136966","0.0-100.0","33","1","2025-01-25 16:32:45","af8d355d56820e421d246a7037deb6e6","212.32.121.76","Mozilla/5.0 (Windows NT 10.0; Win64; x64) AppleWebKit/537.36 (KHTML, like Gecko) Chrome/131.0.0.0 Safari/537.36","WebKit","Chrome","131.0.0.0","Windows","10.0","https://app.prolific.com/","en-US,en;q=0.9","6791c19c19747d9082192f15","67949641171f97c04e14fb34","6795120ea0f394292f9c7f51","","null","<img     src='G_5.jpg' height='90'> <img     src='G_8.jpg' height='90'> <img     src='G_7.jpg' height='90'> <img      src='G_4.jpg' height='90'> <img   src='G_6.jpg' height='90'> <img       src='G_1.jpg' height='90'> <img id='selected'  src='G_3.jpg' height='90'> <img id='selected' src='G_2.jpg' height='90'>","null","Animation1",""
"","","","","","html-keyboard-response","105","137499","0.0-101.0","33","1","2025-01-25 16:32:45","af8d355d56820e421d246a7037deb6e6","212.32.121.76","Mozilla/5.0 (Windows NT 10.0; Win64; x64) AppleWebKit/537.36 (KHTML, like Gecko) Chrome/131.0.0.0 Safari/537.36","WebKit","Chrome","131.0.0.0","Windows","10.0","https://app.prolific.com/","en-US,en;q=0.9","6791c19c19747d9082192f15","67949641171f97c04e14fb34","6795120ea0f394292f9c7f51","","null","<img     src='G_5.jpg' height='90'> <img     src='G_8.jpg' height='90'> <img     src='G_7.jpg' height='90'> <img      src='G_4.jpg' height='90'> <img   src='G_6.jpg' height='90'> <img       src='G_1.jpg' height='90'> <img id='swapped' src='G_2.jpg' height='90'> <img id='swapped'  src='G_3.jpg' height='90'>","null","Animation1",""
"","","","","","html-keyboard-response","106","137816","0.0-102.0","33","1","2025-01-25 16:32:45","af8d355d56820e421d246a7037deb6e6","212.32.121.76","Mozilla/5.0 (Windows NT 10.0; Win64; x64) AppleWebKit/537.36 (KHTML, like Gecko) Chrome/131.0.0.0 Safari/537.36","WebKit","Chrome","131.0.0.0","Windows","10.0","https://app.prolific.com/","en-US,en;q=0.9","6791c19c19747d9082192f15","67949641171f97c04e14fb34","6795120ea0f394292f9c7f51","","null","<img     src='G_5.jpg' height='90'> <img     src='G_8.jpg' height='90'> <img     src='G_7.jpg' height='90'> <img      src='G_4.jpg' height='90'> <img   src='G_6.jpg' height='90'> <img       src='G_1.jpg' height='90'> <img  src='G_2.jpg' height='90'> <img   src='G_3.jpg' height='90'>","null","Animation1",""
"","","","","","html-keyboard-response","107","138327","0.0-103.0","33","1","2025-01-25 16:32:45","af8d355d56820e421d246a7037deb6e6","212.32.121.76","Mozilla/5.0 (Windows NT 10.0; Win64; x64) AppleWebKit/537.36 (KHTML, like Gecko) Chrome/131.0.0.0 Safari/537.36","WebKit","Chrome","131.0.0.0","Windows","10.0","https://app.prolific.com/","en-US,en;q=0.9","6791c19c19747d9082192f15","67949641171f97c04e14fb34","6795120ea0f394292f9c7f51","","null","<img     src='G_5.jpg' height='90'> <img     src='G_8.jpg' height='90'> <img     src='G_7.jpg' height='90'> <img      src='G_4.jpg' height='90'> <img   src='G_6.jpg' height='90'> <img id='selected'       src='G_1.jpg' height='90'> <img  src='G_2.jpg' height='90'> <img   src='G_3.jpg' height='90'>","null","Animation1",""
"","","","","","html-keyboard-response","108","138841","0.0-104.0","33","1","2025-01-25 16:32:45","af8d355d56820e421d246a7037deb6e6","212.32.121.76","Mozilla/5.0 (Windows NT 10.0; Win64; x64) AppleWebKit/537.36 (KHTML, like Gecko) Chrome/131.0.0.0 Safari/537.36","WebKit","Chrome","131.0.0.0","Windows","10.0","https://app.prolific.com/","en-US,en;q=0.9","6791c19c19747d9082192f15","67949641171f97c04e14fb34","6795120ea0f394292f9c7f51","","null","<img     src='G_5.jpg' height='90'> <img     src='G_8.jpg' height='90'> <img     src='G_7.jpg' height='90'> <img      src='G_4.jpg' height='90'> <img   src='G_6.jpg' height='90'> <img id='selected'       src='G_1.jpg' height='90'> <img id='selected'  src='G_2.jpg' height='90'> <img   src='G_3.jpg' height='90'>","null","Animation1",""
"","","","","","html-keyboard-response","109","139355","0.0-105.0","33","1","2025-01-25 16:32:45","af8d355d56820e421d246a7037deb6e6","212.32.121.76","Mozilla/5.0 (Windows NT 10.0; Win64; x64) AppleWebKit/537.36 (KHTML, like Gecko) Chrome/131.0.0.0 Safari/537.36","WebKit","Chrome","131.0.0.0","Windows","10.0","https://app.prolific.com/","en-US,en;q=0.9","6791c19c19747d9082192f15","67949641171f97c04e14fb34","6795120ea0f394292f9c7f51","","null","<img     src='G_5.jpg' height='90'> <img     src='G_8.jpg' height='90'> <img     src='G_7.jpg' height='90'> <img      src='G_4.jpg' height='90'> <img   src='G_6.jpg' height='90'> <img id='selected'       src='G_1.jpg' height='90'> <img id='selected'  src='G_2.jpg' height='90'> <img   src='G_3.jpg' height='90'>","null","Animation1",""
"","","","","","html-keyboard-response","110","139675","0.0-106.0","33","1","2025-01-25 16:32:45","af8d355d56820e421d246a7037deb6e6","212.32.121.76","Mozilla/5.0 (Windows NT 10.0; Win64; x64) AppleWebKit/537.36 (KHTML, like Gecko) Chrome/131.0.0.0 Safari/537.36","WebKit","Chrome","131.0.0.0","Windows","10.0","https://app.prolific.com/","en-US,en;q=0.9","6791c19c19747d9082192f15","67949641171f97c04e14fb34","6795120ea0f394292f9c7f51","","null","<img     src='G_5.jpg' height='90'> <img     src='G_8.jpg' height='90'> <img     src='G_7.jpg' height='90'> <img      src='G_4.jpg' height='90'> <img   src='G_6.jpg' height='90'> <img        src='G_1.jpg' height='90'> <img   src='G_2.jpg' height='90'> <img   src='G_3.jpg' height='90'>","null","Animation1",""
"","","","","","html-keyboard-response","111","142887","0.0-107.0","33","1","2025-01-25 16:32:45","af8d355d56820e421d246a7037deb6e6","212.32.121.76","Mozilla/5.0 (Windows NT 10.0; Win64; x64) AppleWebKit/537.36 (KHTML, like Gecko) Chrome/131.0.0.0 Safari/537.36","WebKit","Chrome","131.0.0.0","Windows","10.0","https://app.prolific.com/","en-US,en;q=0.9","6791c19c19747d9082192f15","67949641171f97c04e14fb34","6795120ea0f394292f9c7f51","","3208","[""Did you notice any patterns? <br><br>Press Enter to watch that example again and follow the steps of Omgne Sort.""]","enter","",""
"","","","","","html-button-response","112","143306","0.0-108.0","33","1","2025-01-25 16:32:45","af8d355d56820e421d246a7037deb6e6","212.32.121.76","Mozilla/5.0 (Windows NT 10.0; Win64; x64) AppleWebKit/537.36 (KHTML, like Gecko) Chrome/131.0.0.0 Safari/537.36","WebKit","Chrome","131.0.0.0","Windows","10.0","https://app.prolific.com/","en-US,en;q=0.9","6791c19c19747d9082192f15","67949641171f97c04e14fb34","6795120ea0f394292f9c7f51","","null","<img id='selected' src='G_4.jpg' height='90'> <img src='G_1.jpg' height='90'> <img src='G_7.jpg' height='90'> <img src='G_5.jpg' height='90'> <img src='G_8.jpg' height='90'> <img src='G_6.jpg' height='90'> <img src='G_3.jpg' height='90'> <img src='G_2.jpg' height='90'>","null","Learning example 1",""
"","","","","","html-button-response","113","143620","0.0-109.0","33","1","2025-01-25 16:32:45","af8d355d56820e421d246a7037deb6e6","212.32.121.76","Mozilla/5.0 (Windows NT 10.0; Win64; x64) AppleWebKit/537.36 (KHTML, like Gecko) Chrome/131.0.0.0 Safari/537.36","WebKit","Chrome","131.0.0.0","Windows","10.0","https://app.prolific.com/","en-US,en;q=0.9","6791c19c19747d9082192f15","67949641171f97c04e14fb34","6795120ea0f394292f9c7f51","","null","<img id='selected' src='G_4.jpg' height='90'> <img id='selected' src='G_1.jpg' height='90'> <img src='G_7.jpg' height='90'> <img src='G_5.jpg' height='90'> <img src='G_8.jpg' height='90'> <img src='G_6.jpg' height='90'> <img src='G_3.jpg' height='90'> <img src='G_2.jpg' height='90'>","null","Learning example 1",""
"","","","","","html-button-response","114","143955","0.0-110.0","33","1","2025-01-25 16:32:45","af8d355d56820e421d246a7037deb6e6","212.32.121.76","Mozilla/5.0 (Windows NT 10.0; Win64; x64) AppleWebKit/537.36 (KHTML, like Gecko) Chrome/131.0.0.0 Safari/537.36","WebKit","Chrome","131.0.0.0","Windows","10.0","https://app.prolific.com/","en-US,en;q=0.9","6791c19c19747d9082192f15","67949641171f97c04e14fb34","6795120ea0f394292f9c7f51","","null","<img id='selected' src='G_4.jpg' height='90'> <img id='selected' src='G_1.jpg' height='90'> <img src='G_7.jpg' height='90'> <img src='G_5.jpg' height='90'> <img src='G_8.jpg' height='90'> <img src='G_6.jpg' height='90'> <img src='G_3.jpg' height='90'> <img src='G_2.jpg' height='90'>","null","Learning example 1",""
"","","","","","html-button-response","115","148507","0.0-111.0-0.0-0.0","33","1","2025-01-25 16:32:45","af8d355d56820e421d246a7037deb6e6","212.32.121.76","Mozilla/5.0 (Windows NT 10.0; Win64; x64) AppleWebKit/537.36 (KHTML, like Gecko) Chrome/131.0.0.0 Safari/537.36","WebKit","Chrome","131.0.0.0","Windows","10.0","https://app.prolific.com/","en-US,en;q=0.9","6791c19c19747d9082192f15","67949641171f97c04e14fb34","6795120ea0f394292f9c7f51","","4526","<img id='selected' src='G_4.jpg' height='90'> <img id='selected' src='G_1.jpg' height='90'> <img src='G_7.jpg' height='90'> <img src='G_5.jpg' height='90'> <img src='G_8.jpg' height='90'> <img src='G_6.jpg' height='90'> <img src='G_3.jpg' height='90'> <img src='G_2.jpg' height='90'>","0","Learning example 1",""
"","","","","","html-button-response","116","149154","0.0-111.1-0.1-0.1","33","1","2025-01-25 16:32:45","af8d355d56820e421d246a7037deb6e6","212.32.121.76","Mozilla/5.0 (Windows NT 10.0; Win64; x64) AppleWebKit/537.36 (KHTML, like Gecko) Chrome/131.0.0.0 Safari/537.36","WebKit","Chrome","131.0.0.0","Windows","10.0","https://app.prolific.com/","en-US,en;q=0.9","6791c19c19747d9082192f15","67949641171f97c04e14fb34","6795120ea0f394292f9c7f51","","641","<img id='selected' src='G_4.jpg' height='90'> <img id='selected' src='G_1.jpg' height='90'> <img src='G_7.jpg' height='90'> <img src='G_5.jpg' height='90'> <img src='G_8.jpg' height='90'> <img src='G_6.jpg' height='90'> <img src='G_3.jpg' height='90'> <img src='G_2.jpg' height='90'>","1","Learning example 1",""
"","","","","","html-button-response","117","149365","0.0-112.0","33","1","2025-01-25 16:32:45","af8d355d56820e421d246a7037deb6e6","212.32.121.76","Mozilla/5.0 (Windows NT 10.0; Win64; x64) AppleWebKit/537.36 (KHTML, like Gecko) Chrome/131.0.0.0 Safari/537.36","WebKit","Chrome","131.0.0.0","Windows","10.0","https://app.prolific.com/","en-US,en;q=0.9","6791c19c19747d9082192f15","67949641171f97c04e14fb34","6795120ea0f394292f9c7f51","","null","<img  src='G_4.jpg' height='90'> <img  src='G_1.jpg' height='90'> <img src='G_7.jpg' height='90'> <img src='G_5.jpg' height='90'> <img src='G_8.jpg' height='90'> <img src='G_6.jpg' height='90'> <img src='G_3.jpg' height='90'> <img src='G_2.jpg' height='90'>","null","Learning example 1",""
"","","","","","html-button-response","118","149787","0.0-113.0","33","1","2025-01-25 16:32:45","af8d355d56820e421d246a7037deb6e6","212.32.121.76","Mozilla/5.0 (Windows NT 10.0; Win64; x64) AppleWebKit/537.36 (KHTML, like Gecko) Chrome/131.0.0.0 Safari/537.36","WebKit","Chrome","131.0.0.0","Windows","10.0","https://app.prolific.com/","en-US,en;q=0.9","6791c19c19747d9082192f15","67949641171f97c04e14fb34","6795120ea0f394292f9c7f51","","null","<img  src='G_4.jpg' height='90'> <img id='selected'  src='G_1.jpg' height='90'> <img src='G_7.jpg' height='90'> <img src='G_5.jpg' height='90'> <img src='G_8.jpg' height='90'> <img src='G_6.jpg' height='90'> <img src='G_3.jpg' height='90'> <img src='G_2.jpg' height='90'>","null","Learning example 1",""
"","","","","","html-button-response","119","150098","0.0-114.0","33","1","2025-01-25 16:32:45","af8d355d56820e421d246a7037deb6e6","212.32.121.76","Mozilla/5.0 (Windows NT 10.0; Win64; x64) AppleWebKit/537.36 (KHTML, like Gecko) Chrome/131.0.0.0 Safari/537.36","WebKit","Chrome","131.0.0.0","Windows","10.0","https://app.prolific.com/","en-US,en;q=0.9","6791c19c19747d9082192f15","67949641171f97c04e14fb34","6795120ea0f394292f9c7f51","","null","<img  src='G_4.jpg' height='90'> <img id='selected'  src='G_1.jpg' height='90'> <img id='selected' src='G_7.jpg' height='90'> <img src='G_5.jpg' height='90'> <img src='G_8.jpg' height='90'> <img src='G_6.jpg' height='90'> <img src='G_3.jpg' height='90'> <img src='G_2.jpg' height='90'>","null","Learning example 1",""
"","","","","","html-button-response","120","150405","0.0-115.0","33","1","2025-01-25 16:32:45","af8d355d56820e421d246a7037deb6e6","212.32.121.76","Mozilla/5.0 (Windows NT 10.0; Win64; x64) AppleWebKit/537.36 (KHTML, like Gecko) Chrome/131.0.0.0 Safari/537.36","WebKit","Chrome","131.0.0.0","Windows","10.0","https://app.prolific.com/","en-US,en;q=0.9","6791c19c19747d9082192f15","67949641171f97c04e14fb34","6795120ea0f394292f9c7f51","","null","<img  src='G_4.jpg' height='90'> <img id='swapped' src='G_7.jpg' height='90'> <img id='swapped'  src='G_1.jpg' height='90'> <img src='G_5.jpg' height='90'> <img src='G_8.jpg' height='90'> <img src='G_6.jpg' height='90'> <img src='G_3.jpg' height='90'> <img src='G_2.jpg' height='90'>","null","Learning example 1",""
"","","","","","html-button-response","121","152002","0.0-116.0-0.0-0.0","33","1","2025-01-25 16:32:45","af8d355d56820e421d246a7037deb6e6","212.32.121.76","Mozilla/5.0 (Windows NT 10.0; Win64; x64) AppleWebKit/537.36 (KHTML, like Gecko) Chrome/131.0.0.0 Safari/537.36","WebKit","Chrome","131.0.0.0","Windows","10.0","https://app.prolific.com/","en-US,en;q=0.9","6791c19c19747d9082192f15","67949641171f97c04e14fb34","6795120ea0f394292f9c7f51","","1589","<img  src='G_4.jpg' height='90'> <img id='swapped' src='G_7.jpg' height='90'> <img id='swapped'  src='G_1.jpg' height='90'> <img src='G_5.jpg' height='90'> <img src='G_8.jpg' height='90'> <img src='G_6.jpg' height='90'> <img src='G_3.jpg' height='90'> <img src='G_2.jpg' height='90'>","1","Learning example 1",""
"","","","","","html-button-response","122","152675","0.0-116.1-0.1-0.1","33","1","2025-01-25 16:32:45","af8d355d56820e421d246a7037deb6e6","212.32.121.76","Mozilla/5.0 (Windows NT 10.0; Win64; x64) AppleWebKit/537.36 (KHTML, like Gecko) Chrome/131.0.0.0 Safari/537.36","WebKit","Chrome","131.0.0.0","Windows","10.0","https://app.prolific.com/","en-US,en;q=0.9","6791c19c19747d9082192f15","67949641171f97c04e14fb34","6795120ea0f394292f9c7f51","","666","<img  src='G_4.jpg' height='90'> <img id='swapped' src='G_7.jpg' height='90'> <img id='swapped'  src='G_1.jpg' height='90'> <img src='G_5.jpg' height='90'> <img src='G_8.jpg' height='90'> <img src='G_6.jpg' height='90'> <img src='G_3.jpg' height='90'> <img src='G_2.jpg' height='90'>","2","Learning example 1",""
"","","","","","html-button-response","123","152881","0.0-117.0","33","1","2025-01-25 16:32:45","af8d355d56820e421d246a7037deb6e6","212.32.121.76","Mozilla/5.0 (Windows NT 10.0; Win64; x64) AppleWebKit/537.36 (KHTML, like Gecko) Chrome/131.0.0.0 Safari/537.36","WebKit","Chrome","131.0.0.0","Windows","10.0","https://app.prolific.com/","en-US,en;q=0.9","6791c19c19747d9082192f15","67949641171f97c04e14fb34","6795120ea0f394292f9c7f51","","null","<img  src='G_4.jpg' height='90'> <img  src='G_7.jpg' height='90'> <img   src='G_1.jpg' height='90'> <img src='G_5.jpg' height='90'> <img src='G_8.jpg' height='90'> <img src='G_6.jpg' height='90'> <img src='G_3.jpg' height='90'> <img src='G_2.jpg' height='90'>","null","Learning example 1",""
"","","","","","html-button-response","124","153302","0.0-118.0","33","1","2025-01-25 16:32:45","af8d355d56820e421d246a7037deb6e6","212.32.121.76","Mozilla/5.0 (Windows NT 10.0; Win64; x64) AppleWebKit/537.36 (KHTML, like Gecko) Chrome/131.0.0.0 Safari/537.36","WebKit","Chrome","131.0.0.0","Windows","10.0","https://app.prolific.com/","en-US,en;q=0.9","6791c19c19747d9082192f15","67949641171f97c04e14fb34","6795120ea0f394292f9c7f51","","null","<img id='selected'  src='G_4.jpg' height='90'> <img  src='G_7.jpg' height='90'> <img   src='G_1.jpg' height='90'> <img src='G_5.jpg' height='90'> <img src='G_8.jpg' height='90'> <img src='G_6.jpg' height='90'> <img src='G_3.jpg' height='90'> <img src='G_2.jpg' height='90'>","null","Learning example 1",""
"","","","","","html-button-response","125","153634","0.0-119.0","33","1","2025-01-25 16:32:45","af8d355d56820e421d246a7037deb6e6","212.32.121.76","Mozilla/5.0 (Windows NT 10.0; Win64; x64) AppleWebKit/537.36 (KHTML, like Gecko) Chrome/131.0.0.0 Safari/537.36","WebKit","Chrome","131.0.0.0","Windows","10.0","https://app.prolific.com/","en-US,en;q=0.9","6791c19c19747d9082192f15","67949641171f97c04e14fb34","6795120ea0f394292f9c7f51","","null","<img id='selected'  src='G_4.jpg' height='90'> <img id='selected'  src='G_7.jpg' height='90'> <img   src='G_1.jpg' height='90'> <img src='G_5.jpg' height='90'> <img src='G_8.jpg' height='90'> <img src='G_6.jpg' height='90'> <img src='G_3.jpg' height='90'> <img src='G_2.jpg' height='90'>","null","Learning example 1",""
"","","","","","html-button-response","126","153949","0.0-120.0","33","1","2025-01-25 16:32:45","af8d355d56820e421d246a7037deb6e6","212.32.121.76","Mozilla/5.0 (Windows NT 10.0; Win64; x64) AppleWebKit/537.36 (KHTML, like Gecko) Chrome/131.0.0.0 Safari/537.36","WebKit","Chrome","131.0.0.0","Windows","10.0","https://app.prolific.com/","en-US,en;q=0.9","6791c19c19747d9082192f15","67949641171f97c04e14fb34","6795120ea0f394292f9c7f51","","null","<img id='swapped'  src='G_7.jpg' height='90'> <img id='swapped'  src='G_4.jpg' height='90'> <img   src='G_1.jpg' height='90'> <img src='G_5.jpg' height='90'> <img src='G_8.jpg' height='90'> <img src='G_6.jpg' height='90'> <img src='G_3.jpg' height='90'> <img src='G_2.jpg' height='90'>","null","Learning example 1",""
"","","","","","html-button-response","127","156058","0.0-121.0-0.0-0.0","33","1","2025-01-25 16:32:45","af8d355d56820e421d246a7037deb6e6","212.32.121.76","Mozilla/5.0 (Windows NT 10.0; Win64; x64) AppleWebKit/537.36 (KHTML, like Gecko) Chrome/131.0.0.0 Safari/537.36","WebKit","Chrome","131.0.0.0","Windows","10.0","https://app.prolific.com/","en-US,en;q=0.9","6791c19c19747d9082192f15","67949641171f97c04e14fb34","6795120ea0f394292f9c7f51","","2097","<img id='swapped'  src='G_7.jpg' height='90'> <img id='swapped'  src='G_4.jpg' height='90'> <img   src='G_1.jpg' height='90'> <img src='G_5.jpg' height='90'> <img src='G_8.jpg' height='90'> <img src='G_6.jpg' height='90'> <img src='G_3.jpg' height='90'> <img src='G_2.jpg' height='90'>","0","Learning example 1",""
"","","","","","html-button-response","128","156627","0.0-121.1-0.1-0.1","33","1","2025-01-25 16:32:45","af8d355d56820e421d246a7037deb6e6","212.32.121.76","Mozilla/5.0 (Windows NT 10.0; Win64; x64) AppleWebKit/537.36 (KHTML, like Gecko) Chrome/131.0.0.0 Safari/537.36","WebKit","Chrome","131.0.0.0","Windows","10.0","https://app.prolific.com/","en-US,en;q=0.9","6791c19c19747d9082192f15","67949641171f97c04e14fb34","6795120ea0f394292f9c7f51","","562","<img id='swapped'  src='G_7.jpg' height='90'> <img id='swapped'  src='G_4.jpg' height='90'> <img   src='G_1.jpg' height='90'> <img src='G_5.jpg' height='90'> <img src='G_8.jpg' height='90'> <img src='G_6.jpg' height='90'> <img src='G_3.jpg' height='90'> <img src='G_2.jpg' height='90'>","1","Learning example 1",""
"","","","","","html-button-response","129","156848","0.0-122.0","33","1","2025-01-25 16:32:45","af8d355d56820e421d246a7037deb6e6","212.32.121.76","Mozilla/5.0 (Windows NT 10.0; Win64; x64) AppleWebKit/537.36 (KHTML, like Gecko) Chrome/131.0.0.0 Safari/537.36","WebKit","Chrome","131.0.0.0","Windows","10.0","https://app.prolific.com/","en-US,en;q=0.9","6791c19c19747d9082192f15","67949641171f97c04e14fb34","6795120ea0f394292f9c7f51","","null","<img   src='G_7.jpg' height='90'> <img   src='G_4.jpg' height='90'> <img   src='G_1.jpg' height='90'> <img src='G_5.jpg' height='90'> <img src='G_8.jpg' height='90'> <img src='G_6.jpg' height='90'> <img src='G_3.jpg' height='90'> <img src='G_2.jpg' height='90'>","null","Learning example 1",""
"","","","","","html-button-response","130","157273","0.0-123.0","33","1","2025-01-25 16:32:45","af8d355d56820e421d246a7037deb6e6","212.32.121.76","Mozilla/5.0 (Windows NT 10.0; Win64; x64) AppleWebKit/537.36 (KHTML, like Gecko) Chrome/131.0.0.0 Safari/537.36","WebKit","Chrome","131.0.0.0","Windows","10.0","https://app.prolific.com/","en-US,en;q=0.9","6791c19c19747d9082192f15","67949641171f97c04e14fb34","6795120ea0f394292f9c7f51","","null","<img   src='G_7.jpg' height='90'> <img   src='G_4.jpg' height='90'> <img id='selected'   src='G_1.jpg' height='90'> <img src='G_5.jpg' height='90'> <img src='G_8.jpg' height='90'> <img src='G_6.jpg' height='90'> <img src='G_3.jpg' height='90'> <img src='G_2.jpg' height='90'>","null","Learning example 1",""
"","","","","","html-button-response","131","157595","0.0-124.0","33","1","2025-01-25 16:32:45","af8d355d56820e421d246a7037deb6e6","212.32.121.76","Mozilla/5.0 (Windows NT 10.0; Win64; x64) AppleWebKit/537.36 (KHTML, like Gecko) Chrome/131.0.0.0 Safari/537.36","WebKit","Chrome","131.0.0.0","Windows","10.0","https://app.prolific.com/","en-US,en;q=0.9","6791c19c19747d9082192f15","67949641171f97c04e14fb34","6795120ea0f394292f9c7f51","","null","<img   src='G_7.jpg' height='90'> <img   src='G_4.jpg' height='90'> <img id='selected'   src='G_1.jpg' height='90'> <img id='selected' src='G_5.jpg' height='90'> <img src='G_8.jpg' height='90'> <img src='G_6.jpg' height='90'> <img src='G_3.jpg' height='90'> <img src='G_2.jpg' height='90'>","null","Learning example 1",""
"","","","","","html-button-response","132","157910","0.0-125.0","33","1","2025-01-25 16:32:45","af8d355d56820e421d246a7037deb6e6","212.32.121.76","Mozilla/5.0 (Windows NT 10.0; Win64; x64) AppleWebKit/537.36 (KHTML, like Gecko) Chrome/131.0.0.0 Safari/537.36","WebKit","Chrome","131.0.0.0","Windows","10.0","https://app.prolific.com/","en-US,en;q=0.9","6791c19c19747d9082192f15","67949641171f97c04e14fb34","6795120ea0f394292f9c7f51","","null","<img   src='G_7.jpg' height='90'> <img   src='G_4.jpg' height='90'> <img id='swapped' src='G_5.jpg' height='90'> <img id='swapped'   src='G_1.jpg' height='90'> <img src='G_8.jpg' height='90'> <img src='G_6.jpg' height='90'> <img src='G_3.jpg' height='90'> <img src='G_2.jpg' height='90'>","null","Learning example 1",""
"","","","","","html-button-response","133","158923","0.0-126.0-0.0-0.0","33","1","2025-01-25 16:32:45","af8d355d56820e421d246a7037deb6e6","212.32.121.76","Mozilla/5.0 (Windows NT 10.0; Win64; x64) AppleWebKit/537.36 (KHTML, like Gecko) Chrome/131.0.0.0 Safari/537.36","WebKit","Chrome","131.0.0.0","Windows","10.0","https://app.prolific.com/","en-US,en;q=0.9","6791c19c19747d9082192f15","67949641171f97c04e14fb34","6795120ea0f394292f9c7f51","","1000","<img   src='G_7.jpg' height='90'> <img   src='G_4.jpg' height='90'> <img id='swapped' src='G_5.jpg' height='90'> <img id='swapped'   src='G_1.jpg' height='90'> <img src='G_8.jpg' height='90'> <img src='G_6.jpg' height='90'> <img src='G_3.jpg' height='90'> <img src='G_2.jpg' height='90'>","2","Learning example 1",""
"","","","","","html-button-response","134","160130","0.0-126.1-0.1-0.1","33","1","2025-01-25 16:32:45","af8d355d56820e421d246a7037deb6e6","212.32.121.76","Mozilla/5.0 (Windows NT 10.0; Win64; x64) AppleWebKit/537.36 (KHTML, like Gecko) Chrome/131.0.0.0 Safari/537.36","WebKit","Chrome","131.0.0.0","Windows","10.0","https://app.prolific.com/","en-US,en;q=0.9","6791c19c19747d9082192f15","67949641171f97c04e14fb34","6795120ea0f394292f9c7f51","","1201","<img   src='G_7.jpg' height='90'> <img   src='G_4.jpg' height='90'> <img id='swapped' src='G_5.jpg' height='90'> <img id='swapped'   src='G_1.jpg' height='90'> <img src='G_8.jpg' height='90'> <img src='G_6.jpg' height='90'> <img src='G_3.jpg' height='90'> <img src='G_2.jpg' height='90'>","3","Learning example 1",""
"","","","","","html-button-response","135","160341","0.0-127.0","33","1","2025-01-25 16:32:45","af8d355d56820e421d246a7037deb6e6","212.32.121.76","Mozilla/5.0 (Windows NT 10.0; Win64; x64) AppleWebKit/537.36 (KHTML, like Gecko) Chrome/131.0.0.0 Safari/537.36","WebKit","Chrome","131.0.0.0","Windows","10.0","https://app.prolific.com/","en-US,en;q=0.9","6791c19c19747d9082192f15","67949641171f97c04e14fb34","6795120ea0f394292f9c7f51","","null","<img   src='G_7.jpg' height='90'> <img   src='G_4.jpg' height='90'> <img  src='G_5.jpg' height='90'> <img    src='G_1.jpg' height='90'> <img src='G_8.jpg' height='90'> <img src='G_6.jpg' height='90'> <img src='G_3.jpg' height='90'> <img src='G_2.jpg' height='90'>","null","Learning example 1",""
"","","","","","html-button-response","136","160763","0.0-128.0","33","1","2025-01-25 16:32:45","af8d355d56820e421d246a7037deb6e6","212.32.121.76","Mozilla/5.0 (Windows NT 10.0; Win64; x64) AppleWebKit/537.36 (KHTML, like Gecko) Chrome/131.0.0.0 Safari/537.36","WebKit","Chrome","131.0.0.0","Windows","10.0","https://app.prolific.com/","en-US,en;q=0.9","6791c19c19747d9082192f15","67949641171f97c04e14fb34","6795120ea0f394292f9c7f51","","null","<img   src='G_7.jpg' height='90'> <img id='selected'   src='G_4.jpg' height='90'> <img  src='G_5.jpg' height='90'> <img    src='G_1.jpg' height='90'> <img src='G_8.jpg' height='90'> <img src='G_6.jpg' height='90'> <img src='G_3.jpg' height='90'> <img src='G_2.jpg' height='90'>","null","Learning example 1",""
"","","","","","html-button-response","137","161099","0.0-129.0","33","1","2025-01-25 16:32:45","af8d355d56820e421d246a7037deb6e6","212.32.121.76","Mozilla/5.0 (Windows NT 10.0; Win64; x64) AppleWebKit/537.36 (KHTML, like Gecko) Chrome/131.0.0.0 Safari/537.36","WebKit","Chrome","131.0.0.0","Windows","10.0","https://app.prolific.com/","en-US,en;q=0.9","6791c19c19747d9082192f15","67949641171f97c04e14fb34","6795120ea0f394292f9c7f51","","null","<img   src='G_7.jpg' height='90'> <img id='selected'   src='G_4.jpg' height='90'> <img id='selected'  src='G_5.jpg' height='90'> <img    src='G_1.jpg' height='90'> <img src='G_8.jpg' height='90'> <img src='G_6.jpg' height='90'> <img src='G_3.jpg' height='90'> <img src='G_2.jpg' height='90'>","null","Learning example 1",""
"","","","","","html-button-response","138","161414","0.0-130.0","33","1","2025-01-25 16:32:45","af8d355d56820e421d246a7037deb6e6","212.32.121.76","Mozilla/5.0 (Windows NT 10.0; Win64; x64) AppleWebKit/537.36 (KHTML, like Gecko) Chrome/131.0.0.0 Safari/537.36","WebKit","Chrome","131.0.0.0","Windows","10.0","https://app.prolific.com/","en-US,en;q=0.9","6791c19c19747d9082192f15","67949641171f97c04e14fb34","6795120ea0f394292f9c7f51","","null","<img   src='G_7.jpg' height='90'> <img id='swapped'  src='G_5.jpg' height='90'> <img id='swapped'   src='G_4.jpg' height='90'> <img    src='G_1.jpg' height='90'> <img src='G_8.jpg' height='90'> <img src='G_6.jpg' height='90'> <img src='G_3.jpg' height='90'> <img src='G_2.jpg' height='90'>","null","Learning example 1",""
