"success","timeout","failed_images","failed_audio","failed_video","trial_type","trial_index","time_elapsed","internal_node_id","run_id","condition","recorded_at","source_code_version","ip","user_agent","device","browser","browser_version","platform","platform_version","referer","accept_language","PROLIFIC_PID","STUDY_ID","SESSION_ID","view_history","rt","stimulus","response","phase","question_order"
"true","false","[]","[]","[]","preload","0","2207","0.0-0.0","34","1","2025-01-25 16:33:04","af8d355d56820e421d246a7037deb6e6","66.128.195.228","Mozilla/5.0 (Windows NT 10.0; Win64; x64; rv:134.0) Gecko/20100101 Firefox/134.0","","Firefox","134.0","Windows","10.0","https://app.prolific.com/","en-US,en;q=0.5","6759f53758fb6b98b9dbf3e2","67949641171f97c04e14fb34","6795122cff23ef835ce0161a","","","","","",""
"","","","","","instructions","1","15575","0.0-1.0","34","1","2025-01-25 16:33:04","af8d355d56820e421d246a7037deb6e6","66.128.195.228","Mozilla/5.0 (Windows NT 10.0; Win64; x64; rv:134.0) Gecko/20100101 Firefox/134.0","","Firefox","134.0","Windows","10.0","https://app.prolific.com/","en-US,en;q=0.5","6759f53758fb6b98b9dbf3e2","67949641171f97c04e14fb34","6795122cff23ef835ce0161a","[{""page_index"":0,""viewing_time"":13359}]","13360","","","",""
"","","","","","html-keyboard-response","2","16081","0.0-2.0","34","1","2025-01-25 16:33:04","af8d355d56820e421d246a7037deb6e6","66.128.195.228","Mozilla/5.0 (Windows NT 10.0; Win64; x64; rv:134.0) Gecko/20100101 Firefox/134.0","","Firefox","134.0","Windows","10.0","https://app.prolific.com/","en-US,en;q=0.5","6759f53758fb6b98b9dbf3e2","67949641171f97c04e14fb34","6795122cff23ef835ce0161a","","null","<p> + <p/>","null","",""
"","","","","","instructions","3","112853","0.0-3.0","34","1","2025-01-25 16:33:04","af8d355d56820e421d246a7037deb6e6","66.128.195.228","Mozilla/5.0 (Windows NT 10.0; Win64; x64; rv:134.0) Gecko/20100101 Firefox/134.0","","Firefox","134.0","Windows","10.0","https://app.prolific.com/","en-US,en;q=0.5","6759f53758fb6b98b9dbf3e2","67949641171f97c04e14fb34","6795122cff23ef835ce0161a","[{""page_index"":0,""viewing_time"":11385},{""page_index"":1,""viewing_time"":27189},{""page_index"":2,""viewing_time"":1463},{""page_index"":3,""viewing_time"":31434},{""page_index"":4,""viewing_time"":25297}]","96768","","","",""
"","","","","","html-button-response","4","144543","0.0-4.0-0.0-0.0","34","1","2025-01-25 16:33:04","af8d355d56820e421d246a7037deb6e6","66.128.195.228","Mozilla/5.0 (Windows NT 10.0; Win64; x64; rv:134.0) Gecko/20100101 Firefox/134.0","","Firefox","134.0","Windows","10.0","https://app.prolific.com/","en-US,en;q=0.5","6759f53758fb6b98b9dbf3e2","67949641171f97c04e14fb34","6795122cff23ef835ce0161a","","31686","","2","Intro Trial",""
"","","","","","html-button-response","5","147418","0.0-4.1-0.1-0.1","34","1","2025-01-25 16:33:04","af8d355d56820e421d246a7037deb6e6","66.128.195.228","Mozilla/5.0 (Windows NT 10.0; Win64; x64; rv:134.0) Gecko/20100101 Firefox/134.0","","Firefox","134.0","Windows","10.0","https://app.prolific.com/","en-US,en;q=0.5","6759f53758fb6b98b9dbf3e2","67949641171f97c04e14fb34","6795122cff23ef835ce0161a","","2871","","4","Intro Trial",""
"","","","","","html-button-response","6","166448","0.0-4.2-0.2-0.2","34","1","2025-01-25 16:33:04","af8d355d56820e421d246a7037deb6e6","66.128.195.228","Mozilla/5.0 (Windows NT 10.0; Win64; x64; rv:134.0) Gecko/20100101 Firefox/134.0","","Firefox","134.0","Windows","10.0","https://app.prolific.com/","en-US,en;q=0.5","6759f53758fb6b98b9dbf3e2","67949641171f97c04e14fb34","6795122cff23ef835ce0161a","","19026","","0","Intro Trial",""
"","","","","","html-button-response","7","167959","0.0-4.3-0.3-0.3","34","1","2025-01-25 16:33:04","af8d355d56820e421d246a7037deb6e6","66.128.195.228","Mozilla/5.0 (Windows NT 10.0; Win64; x64; rv:134.0) Gecko/20100101 Firefox/134.0","","Firefox","134.0","Windows","10.0","https://app.prolific.com/","en-US,en;q=0.5","6759f53758fb6b98b9dbf3e2","67949641171f97c04e14fb34","6795122cff23ef835ce0161a","","1508","","3","Intro Trial",""
"","","","","","html-button-response","8","172343","0.0-4.4-0.4-0.4","34","1","2025-01-25 16:33:04","af8d355d56820e421d246a7037deb6e6","66.128.195.228","Mozilla/5.0 (Windows NT 10.0; Win64; x64; rv:134.0) Gecko/20100101 Firefox/134.0","","Firefox","134.0","Windows","10.0","https://app.prolific.com/","en-US,en;q=0.5","6759f53758fb6b98b9dbf3e2","67949641171f97c04e14fb34","6795122cff23ef835ce0161a","","4382","","1","Intro Trial",""
"","","","","","html-button-response","9","173046","0.0-4.5-0.5-0.5","34","1","2025-01-25 16:33:04","af8d355d56820e421d246a7037deb6e6","66.128.195.228","Mozilla/5.0 (Windows NT 10.0; Win64; x64; rv:134.0) Gecko/20100101 Firefox/134.0","","Firefox","134.0","Windows","10.0","https://app.prolific.com/","en-US,en;q=0.5","6759f53758fb6b98b9dbf3e2","67949641171f97c04e14fb34","6795122cff23ef835ce0161a","","702","","2","Intro Trial",""
"","","","","","html-button-response","10","176886","0.0-4.6-0.6-0.6","34","1","2025-01-25 16:33:04","af8d355d56820e421d246a7037deb6e6","66.128.195.228","Mozilla/5.0 (Windows NT 10.0; Win64; x64; rv:134.0) Gecko/20100101 Firefox/134.0","","Firefox","134.0","Windows","10.0","https://app.prolific.com/","en-US,en;q=0.5","6759f53758fb6b98b9dbf3e2","67949641171f97c04e14fb34","6795122cff23ef835ce0161a","","3838","","1","Intro Trial",""
"","","","","","html-button-response","11","178374","0.0-4.7-0.7-0.7","34","1","2025-01-25 16:33:04","af8d355d56820e421d246a7037deb6e6","66.128.195.228","Mozilla/5.0 (Windows NT 10.0; Win64; x64; rv:134.0) Gecko/20100101 Firefox/134.0","","Firefox","134.0","Windows","10.0","https://app.prolific.com/","en-US,en;q=0.5","6759f53758fb6b98b9dbf3e2","67949641171f97c04e14fb34","6795122cff23ef835ce0161a","","1487","","0","Intro Trial",""
"","","","","","html-button-response","12","187486","0.0-4.8-0.8-0.8","34","1","2025-01-25 16:33:04","af8d355d56820e421d246a7037deb6e6","66.128.195.228","Mozilla/5.0 (Windows NT 10.0; Win64; x64; rv:134.0) Gecko/20100101 Firefox/134.0","","Firefox","134.0","Windows","10.0","https://app.prolific.com/","en-US,en;q=0.5","6759f53758fb6b98b9dbf3e2","67949641171f97c04e14fb34","6795122cff23ef835ce0161a","","9110","","4","Intro Trial",""
"","","","","","html-button-response","13","198014","0.0-4.9-0.9-0.9","34","1","2025-01-25 16:33:04","af8d355d56820e421d246a7037deb6e6","66.128.195.228","Mozilla/5.0 (Windows NT 10.0; Win64; x64; rv:134.0) Gecko/20100101 Firefox/134.0","","Firefox","134.0","Windows","10.0","https://app.prolific.com/","en-US,en;q=0.5","6759f53758fb6b98b9dbf3e2","67949641171f97c04e14fb34","6795122cff23ef835ce0161a","","10527","","3","Intro Trial",""
"","","","","","html-button-response","14","199078","0.0-4.10-0.10-0.10","34","1","2025-01-25 16:33:04","af8d355d56820e421d246a7037deb6e6","66.128.195.228","Mozilla/5.0 (Windows NT 10.0; Win64; x64; rv:134.0) Gecko/20100101 Firefox/134.0","","Firefox","134.0","Windows","10.0","https://app.prolific.com/","en-US,en;q=0.5","6759f53758fb6b98b9dbf3e2","67949641171f97c04e14fb34","6795122cff23ef835ce0161a","","1061","","4","Intro Trial",""
"","","","","","html-button-response","15","200183","0.0-4.11-0.11-0.11","34","1","2025-01-25 16:33:04","af8d355d56820e421d246a7037deb6e6","66.128.195.228","Mozilla/5.0 (Windows NT 10.0; Win64; x64; rv:134.0) Gecko/20100101 Firefox/134.0","","Firefox","134.0","Windows","10.0","https://app.prolific.com/","en-US,en;q=0.5","6759f53758fb6b98b9dbf3e2","67949641171f97c04e14fb34","6795122cff23ef835ce0161a","","1103","","0","Intro Trial",""
"","","","","","html-button-response","16","200559","0.0-4.12-0.12-0.12","34","1","2025-01-25 16:33:04","af8d355d56820e421d246a7037deb6e6","66.128.195.228","Mozilla/5.0 (Windows NT 10.0; Win64; x64; rv:134.0) Gecko/20100101 Firefox/134.0","","Firefox","134.0","Windows","10.0","https://app.prolific.com/","en-US,en;q=0.5","6759f53758fb6b98b9dbf3e2","67949641171f97c04e14fb34","6795122cff23ef835ce0161a","","374","","0","Intro Trial",""
"","","","","","html-button-response","17","202038","0.0-4.13-0.13-0.13","34","1","2025-01-25 16:33:04","af8d355d56820e421d246a7037deb6e6","66.128.195.228","Mozilla/5.0 (Windows NT 10.0; Win64; x64; rv:134.0) Gecko/20100101 Firefox/134.0","","Firefox","134.0","Windows","10.0","https://app.prolific.com/","en-US,en;q=0.5","6759f53758fb6b98b9dbf3e2","67949641171f97c04e14fb34","6795122cff23ef835ce0161a","","1477","","4","Intro Trial",""
"","","","","","html-button-response","18","203022","0.0-4.14-0.14-0.14","34","1","2025-01-25 16:33:04","af8d355d56820e421d246a7037deb6e6","66.128.195.228","Mozilla/5.0 (Windows NT 10.0; Win64; x64; rv:134.0) Gecko/20100101 Firefox/134.0","","Firefox","134.0","Windows","10.0","https://app.prolific.com/","en-US,en;q=0.5","6759f53758fb6b98b9dbf3e2","67949641171f97c04e14fb34","6795122cff23ef835ce0161a","","981","","0","Intro Trial",""
"","","","","","html-button-response","19","204647","0.0-4.15-0.15-0.15","34","1","2025-01-25 16:33:04","af8d355d56820e421d246a7037deb6e6","66.128.195.228","Mozilla/5.0 (Windows NT 10.0; Win64; x64; rv:134.0) Gecko/20100101 Firefox/134.0","","Firefox","134.0","Windows","10.0","https://app.prolific.com/","en-US,en;q=0.5","6759f53758fb6b98b9dbf3e2","67949641171f97c04e14fb34","6795122cff23ef835ce0161a","","1622","","4","Intro Trial",""
"","","","","","html-button-response","20","206030","0.0-4.16-0.16-0.16","34","1","2025-01-25 16:33:04","af8d355d56820e421d246a7037deb6e6","66.128.195.228","Mozilla/5.0 (Windows NT 10.0; Win64; x64; rv:134.0) Gecko/20100101 Firefox/134.0","","Firefox","134.0","Windows","10.0","https://app.prolific.com/","en-US,en;q=0.5","6759f53758fb6b98b9dbf3e2","67949641171f97c04e14fb34","6795122cff23ef835ce0161a","","1382","","1","Intro Trial",""
"","","","","","html-button-response","21","207182","0.0-4.17-0.17-0.17","34","1","2025-01-25 16:33:04","af8d355d56820e421d246a7037deb6e6","66.128.195.228","Mozilla/5.0 (Windows NT 10.0; Win64; x64; rv:134.0) Gecko/20100101 Firefox/134.0","","Firefox","134.0","Windows","10.0","https://app.prolific.com/","en-US,en;q=0.5","6759f53758fb6b98b9dbf3e2","67949641171f97c04e14fb34","6795122cff23ef835ce0161a","","1151","","4","Intro Trial",""
"","","","","","html-button-response","22","207958","0.0-4.18-0.18-0.18","34","1","2025-01-25 16:33:04","af8d355d56820e421d246a7037deb6e6","66.128.195.228","Mozilla/5.0 (Windows NT 10.0; Win64; x64; rv:134.0) Gecko/20100101 Firefox/134.0","","Firefox","134.0","Windows","10.0","https://app.prolific.com/","en-US,en;q=0.5","6759f53758fb6b98b9dbf3e2","67949641171f97c04e14fb34","6795122cff23ef835ce0161a","","774","","1","Intro Trial",""
"","","","","","html-button-response","23","209138","0.0-4.19-0.19-0.19","34","1","2025-01-25 16:33:04","af8d355d56820e421d246a7037deb6e6","66.128.195.228","Mozilla/5.0 (Windows NT 10.0; Win64; x64; rv:134.0) Gecko/20100101 Firefox/134.0","","Firefox","134.0","Windows","10.0","https://app.prolific.com/","en-US,en;q=0.5","6759f53758fb6b98b9dbf3e2","67949641171f97c04e14fb34","6795122cff23ef835ce0161a","","1178","","3","Intro Trial",""
"","","","","","html-button-response","24","212471","0.0-4.20-0.20-0.20","34","1","2025-01-25 16:33:04","af8d355d56820e421d246a7037deb6e6","66.128.195.228","Mozilla/5.0 (Windows NT 10.0; Win64; x64; rv:134.0) Gecko/20100101 Firefox/134.0","","Firefox","134.0","Windows","10.0","https://app.prolific.com/","en-US,en;q=0.5","6759f53758fb6b98b9dbf3e2","67949641171f97c04e14fb34","6795122cff23ef835ce0161a","","3332","","1","Intro Trial",""
"","","","","","html-button-response","25","213423","0.0-4.21-0.21-0.21","34","1","2025-01-25 16:33:04","af8d355d56820e421d246a7037deb6e6","66.128.195.228","Mozilla/5.0 (Windows NT 10.0; Win64; x64; rv:134.0) Gecko/20100101 Firefox/134.0","","Firefox","134.0","Windows","10.0","https://app.prolific.com/","en-US,en;q=0.5","6759f53758fb6b98b9dbf3e2","67949641171f97c04e14fb34","6795122cff23ef835ce0161a","","948","","4","Intro Trial",""
"","","","","","html-button-response","26","215335","0.0-4.22-0.22-0.22","34","1","2025-01-25 16:33:04","af8d355d56820e421d246a7037deb6e6","66.128.195.228","Mozilla/5.0 (Windows NT 10.0; Win64; x64; rv:134.0) Gecko/20100101 Firefox/134.0","","Firefox","134.0","Windows","10.0","https://app.prolific.com/","en-US,en;q=0.5","6759f53758fb6b98b9dbf3e2","67949641171f97c04e14fb34","6795122cff23ef835ce0161a","","1909","","2","Intro Trial",""
"","","","","","html-button-response","27","215941","0.0-4.23-0.23-0.23","34","1","2025-01-25 16:33:04","af8d355d56820e421d246a7037deb6e6","66.128.195.228","Mozilla/5.0 (Windows NT 10.0; Win64; x64; rv:134.0) Gecko/20100101 Firefox/134.0","","Firefox","134.0","Windows","10.0","https://app.prolific.com/","en-US,en;q=0.5","6759f53758fb6b98b9dbf3e2","67949641171f97c04e14fb34","6795122cff23ef835ce0161a","","605","","3","Intro Trial",""
"","","","","","html-button-response","28","216838","0.0-4.24-0.24-0.24","34","1","2025-01-25 16:33:04","af8d355d56820e421d246a7037deb6e6","66.128.195.228","Mozilla/5.0 (Windows NT 10.0; Win64; x64; rv:134.0) Gecko/20100101 Firefox/134.0","","Firefox","134.0","Windows","10.0","https://app.prolific.com/","en-US,en;q=0.5","6759f53758fb6b98b9dbf3e2","67949641171f97c04e14fb34","6795122cff23ef835ce0161a","","894","","4","Intro Trial",""
"","","","","","html-button-response","29","217334","0.0-4.25-0.25-0.25","34","1","2025-01-25 16:33:04","af8d355d56820e421d246a7037deb6e6","66.128.195.228","Mozilla/5.0 (Windows NT 10.0; Win64; x64; rv:134.0) Gecko/20100101 Firefox/134.0","","Firefox","134.0","Windows","10.0","https://app.prolific.com/","en-US,en;q=0.5","6759f53758fb6b98b9dbf3e2","67949641171f97c04e14fb34","6795122cff23ef835ce0161a","","493","","3","Intro Trial",""
"","","","","","html-button-response","30","217961","0.0-4.26-0.26-0.26","34","1","2025-01-25 16:33:04","af8d355d56820e421d246a7037deb6e6","66.128.195.228","Mozilla/5.0 (Windows NT 10.0; Win64; x64; rv:134.0) Gecko/20100101 Firefox/134.0","","Firefox","134.0","Windows","10.0","https://app.prolific.com/","en-US,en;q=0.5","6759f53758fb6b98b9dbf3e2","67949641171f97c04e14fb34","6795122cff23ef835ce0161a","","624","","4","Intro Trial",""
"","","","","","html-button-response","31","218478","0.0-4.27-0.27-0.27","34","1","2025-01-25 16:33:04","af8d355d56820e421d246a7037deb6e6","66.128.195.228","Mozilla/5.0 (Windows NT 10.0; Win64; x64; rv:134.0) Gecko/20100101 Firefox/134.0","","Firefox","134.0","Windows","10.0","https://app.prolific.com/","en-US,en;q=0.5","6759f53758fb6b98b9dbf3e2","67949641171f97c04e14fb34","6795122cff23ef835ce0161a","","515","","2","Intro Trial",""
"","","","","","html-button-response","32","219847","0.0-4.28-0.28-0.28","34","1","2025-01-25 16:33:04","af8d355d56820e421d246a7037deb6e6","66.128.195.228","Mozilla/5.0 (Windows NT 10.0; Win64; x64; rv:134.0) Gecko/20100101 Firefox/134.0","","Firefox","134.0","Windows","10.0","https://app.prolific.com/","en-US,en;q=0.5","6759f53758fb6b98b9dbf3e2","67949641171f97c04e14fb34","6795122cff23ef835ce0161a","","1366","","5","Intro Trial",""
"","","","","","html-keyboard-response","33","233152","0.0-5.0","34","1","2025-01-25 16:33:04","af8d355d56820e421d246a7037deb6e6","66.128.195.228","Mozilla/5.0 (Windows NT 10.0; Win64; x64; rv:134.0) Gecko/20100101 Firefox/134.0","","Firefox","134.0","Windows","10.0","https://app.prolific.com/","en-US,en;q=0.5","6759f53758fb6b98b9dbf3e2","67949641171f97c04e14fb34","6795122cff23ef835ce0161a","","13304","[""You sorted incorrectly by using the balance 14 times. <br><br> <img src='G_5.jpg' height='90'><img src='G_3.jpg' height='90'><img src='G_2.jpg' height='90'><img src='G_1.jpg' height='90'><img src='G_4.jpg' height='90'><br><br> Your final order is 1,3,2,4,5<br><br><br>Omgne Sort in this game will allow you to sort correctly by using the balance 8 times. Press Enter to learn it!""]","enter","",""
"","","","","","html-keyboard-response","34","280327","0.0-6.0","34","1","2025-01-25 16:33:04","af8d355d56820e421d246a7037deb6e6","66.128.195.228","Mozilla/5.0 (Windows NT 10.0; Win64; x64; rv:134.0) Gecko/20100101 Firefox/134.0","","Firefox","134.0","Windows","10.0","https://app.prolific.com/","en-US,en;q=0.5","6759f53758fb6b98b9dbf3e2","67949641171f97c04e14fb34","6795122cff23ef835ce0161a","","47173","<p>Welcome to the learning phase! <br><br> You will learn by six examples. The following learning trials will not be used to calculate your performance. <br><br> Press Enter to continue.<p/>","enter","",""
"","","","","","html-keyboard-response","35","303497","0.0-7.0","34","1","2025-01-25 16:33:04","af8d355d56820e421d246a7037deb6e6","66.128.195.228","Mozilla/5.0 (Windows NT 10.0; Win64; x64; rv:134.0) Gecko/20100101 Firefox/134.0","","Firefox","134.0","Windows","10.0","https://app.prolific.com/","en-US,en;q=0.5","6759f53758fb6b98b9dbf3e2","67949641171f97c04e14fb34","6795122cff23ef835ce0161a","","23167","[""Example 1<br><br>You will watch Omnge Sort in action. Try to identify any patterns in the comparisons made by this method. <br><br>Press Enter to continue.""]","enter","",""
"","","","","","html-keyboard-response","36","304008","0.0-8.0","34","1","2025-01-25 16:33:04","af8d355d56820e421d246a7037deb6e6","66.128.195.228","Mozilla/5.0 (Windows NT 10.0; Win64; x64; rv:134.0) Gecko/20100101 Firefox/134.0","","Firefox","134.0","Windows","10.0","https://app.prolific.com/","en-US,en;q=0.5","6759f53758fb6b98b9dbf3e2","67949641171f97c04e14fb34","6795122cff23ef835ce0161a","","null","<img id='selected' src='G_7.jpg' height='90'> <img src='G_3.jpg' height='90'> <img src='G_9.jpg' height='90'> <img src='G_5.jpg' height='90'> <img src='G_1.jpg' height='90'>","null","Animation0",""
"","","","","","html-keyboard-response","37","304518","0.0-9.0","34","1","2025-01-25 16:33:04","af8d355d56820e421d246a7037deb6e6","66.128.195.228","Mozilla/5.0 (Windows NT 10.0; Win64; x64; rv:134.0) Gecko/20100101 Firefox/134.0","","Firefox","134.0","Windows","10.0","https://app.prolific.com/","en-US,en;q=0.5","6759f53758fb6b98b9dbf3e2","67949641171f97c04e14fb34","6795122cff23ef835ce0161a","","null","<img id='selected' src='G_7.jpg' height='90'> <img id='selected' src='G_3.jpg' height='90'> <img src='G_9.jpg' height='90'> <img src='G_5.jpg' height='90'> <img src='G_1.jpg' height='90'>","null","Animation0",""
"","","","","","html-keyboard-response","38","305025","0.0-10.0","34","1","2025-01-25 16:33:04","af8d355d56820e421d246a7037deb6e6","66.128.195.228","Mozilla/5.0 (Windows NT 10.0; Win64; x64; rv:134.0) Gecko/20100101 Firefox/134.0","","Firefox","134.0","Windows","10.0","https://app.prolific.com/","en-US,en;q=0.5","6759f53758fb6b98b9dbf3e2","67949641171f97c04e14fb34","6795122cff23ef835ce0161a","","null","<img id='swapped' src='G_3.jpg' height='90'> <img id='swapped' src='G_7.jpg' height='90'> <img src='G_9.jpg' height='90'> <img src='G_5.jpg' height='90'> <img src='G_1.jpg' height='90'>","null","Animation0",""
"","","","","","html-keyboard-response","39","305330","0.0-11.0","34","1","2025-01-25 16:33:04","af8d355d56820e421d246a7037deb6e6","66.128.195.228","Mozilla/5.0 (Windows NT 10.0; Win64; x64; rv:134.0) Gecko/20100101 Firefox/134.0","","Firefox","134.0","Windows","10.0","https://app.prolific.com/","en-US,en;q=0.5","6759f53758fb6b98b9dbf3e2","67949641171f97c04e14fb34","6795122cff23ef835ce0161a","","null","<img  src='G_3.jpg' height='90'> <img  src='G_7.jpg' height='90'> <img src='G_9.jpg' height='90'> <img src='G_5.jpg' height='90'> <img src='G_1.jpg' height='90'>","null","Animation0",""
"","","","","","html-keyboard-response","40","305848","0.0-12.0","34","1","2025-01-25 16:33:04","af8d355d56820e421d246a7037deb6e6","66.128.195.228","Mozilla/5.0 (Windows NT 10.0; Win64; x64; rv:134.0) Gecko/20100101 Firefox/134.0","","Firefox","134.0","Windows","10.0","https://app.prolific.com/","en-US,en;q=0.5","6759f53758fb6b98b9dbf3e2","67949641171f97c04e14fb34","6795122cff23ef835ce0161a","","null","<img  src='G_3.jpg' height='90'> <img id='selected'  src='G_7.jpg' height='90'> <img src='G_9.jpg' height='90'> <img src='G_5.jpg' height='90'> <img src='G_1.jpg' height='90'>","null","Animation0",""
"","","","","","html-keyboard-response","41","306355","0.0-13.0","34","1","2025-01-25 16:33:04","af8d355d56820e421d246a7037deb6e6","66.128.195.228","Mozilla/5.0 (Windows NT 10.0; Win64; x64; rv:134.0) Gecko/20100101 Firefox/134.0","","Firefox","134.0","Windows","10.0","https://app.prolific.com/","en-US,en;q=0.5","6759f53758fb6b98b9dbf3e2","67949641171f97c04e14fb34","6795122cff23ef835ce0161a","","null","<img  src='G_3.jpg' height='90'> <img id='selected'  src='G_7.jpg' height='90'> <img id='selected' src='G_9.jpg' height='90'> <img src='G_5.jpg' height='90'> <img src='G_1.jpg' height='90'>","null","Animation0",""
"","","","","","html-keyboard-response","42","306862","0.0-14.0","34","1","2025-01-25 16:33:04","af8d355d56820e421d246a7037deb6e6","66.128.195.228","Mozilla/5.0 (Windows NT 10.0; Win64; x64; rv:134.0) Gecko/20100101 Firefox/134.0","","Firefox","134.0","Windows","10.0","https://app.prolific.com/","en-US,en;q=0.5","6759f53758fb6b98b9dbf3e2","67949641171f97c04e14fb34","6795122cff23ef835ce0161a","","null","<img  src='G_3.jpg' height='90'> <img id='selected'  src='G_7.jpg' height='90'> <img id='selected' src='G_9.jpg' height='90'> <img src='G_5.jpg' height='90'> <img src='G_1.jpg' height='90'>","null","Animation0",""
"","","","","","html-keyboard-response","43","307176","0.0-15.0","34","1","2025-01-25 16:33:04","af8d355d56820e421d246a7037deb6e6","66.128.195.228","Mozilla/5.0 (Windows NT 10.0; Win64; x64; rv:134.0) Gecko/20100101 Firefox/134.0","","Firefox","134.0","Windows","10.0","https://app.prolific.com/","en-US,en;q=0.5","6759f53758fb6b98b9dbf3e2","67949641171f97c04e14fb34","6795122cff23ef835ce0161a","","null","<img  src='G_3.jpg' height='90'> <img   src='G_7.jpg' height='90'> <img  src='G_9.jpg' height='90'> <img src='G_5.jpg' height='90'> <img src='G_1.jpg' height='90'>","null","Animation0",""
"","","","","","html-keyboard-response","44","307685","0.0-16.0","34","1","2025-01-25 16:33:04","af8d355d56820e421d246a7037deb6e6","66.128.195.228","Mozilla/5.0 (Windows NT 10.0; Win64; x64; rv:134.0) Gecko/20100101 Firefox/134.0","","Firefox","134.0","Windows","10.0","https://app.prolific.com/","en-US,en;q=0.5","6759f53758fb6b98b9dbf3e2","67949641171f97c04e14fb34","6795122cff23ef835ce0161a","","null","<img  src='G_3.jpg' height='90'> <img   src='G_7.jpg' height='90'> <img id='selected'  src='G_9.jpg' height='90'> <img src='G_5.jpg' height='90'> <img src='G_1.jpg' height='90'>","null","Animation0",""
"","","","","","html-keyboard-response","45","308192","0.0-17.0","34","1","2025-01-25 16:33:04","af8d355d56820e421d246a7037deb6e6","66.128.195.228","Mozilla/5.0 (Windows NT 10.0; Win64; x64; rv:134.0) Gecko/20100101 Firefox/134.0","","Firefox","134.0","Windows","10.0","https://app.prolific.com/","en-US,en;q=0.5","6759f53758fb6b98b9dbf3e2","67949641171f97c04e14fb34","6795122cff23ef835ce0161a","","null","<img  src='G_3.jpg' height='90'> <img   src='G_7.jpg' height='90'> <img id='selected'  src='G_9.jpg' height='90'> <img id='selected' src='G_5.jpg' height='90'> <img src='G_1.jpg' height='90'>","null","Animation0",""
"","","","","","html-keyboard-response","46","308699","0.0-18.0","34","1","2025-01-25 16:33:04","af8d355d56820e421d246a7037deb6e6","66.128.195.228","Mozilla/5.0 (Windows NT 10.0; Win64; x64; rv:134.0) Gecko/20100101 Firefox/134.0","","Firefox","134.0","Windows","10.0","https://app.prolific.com/","en-US,en;q=0.5","6759f53758fb6b98b9dbf3e2","67949641171f97c04e14fb34","6795122cff23ef835ce0161a","","null","<img  src='G_3.jpg' height='90'> <img   src='G_7.jpg' height='90'> <img id='selected'  src='G_9.jpg' height='90'> <img id='selected' src='G_5.jpg' height='90'> <img src='G_1.jpg' height='90'>","null","Animation0",""
"","","","","","html-keyboard-response","47","309003","0.0-19.0","34","1","2025-01-25 16:33:04","af8d355d56820e421d246a7037deb6e6","66.128.195.228","Mozilla/5.0 (Windows NT 10.0; Win64; x64; rv:134.0) Gecko/20100101 Firefox/134.0","","Firefox","134.0","Windows","10.0","https://app.prolific.com/","en-US,en;q=0.5","6759f53758fb6b98b9dbf3e2","67949641171f97c04e14fb34","6795122cff23ef835ce0161a","","null","<img  src='G_3.jpg' height='90'> <img   src='G_7.jpg' height='90'> <img   src='G_9.jpg' height='90'> <img  src='G_5.jpg' height='90'> <img src='G_1.jpg' height='90'>","null","Animation0",""
"","","","","","html-keyboard-response","48","309514","0.0-20.0","34","1","2025-01-25 16:33:04","af8d355d56820e421d246a7037deb6e6","66.128.195.228","Mozilla/5.0 (Windows NT 10.0; Win64; x64; rv:134.0) Gecko/20100101 Firefox/134.0","","Firefox","134.0","Windows","10.0","https://app.prolific.com/","en-US,en;q=0.5","6759f53758fb6b98b9dbf3e2","67949641171f97c04e14fb34","6795122cff23ef835ce0161a","","null","<img  src='G_3.jpg' height='90'> <img   src='G_7.jpg' height='90'> <img   src='G_9.jpg' height='90'> <img id='selected'  src='G_5.jpg' height='90'> <img src='G_1.jpg' height='90'>","null","Animation0",""
"","","","","","html-keyboard-response","49","310022","0.0-21.0","34","1","2025-01-25 16:33:04","af8d355d56820e421d246a7037deb6e6","66.128.195.228","Mozilla/5.0 (Windows NT 10.0; Win64; x64; rv:134.0) Gecko/20100101 Firefox/134.0","","Firefox","134.0","Windows","10.0","https://app.prolific.com/","en-US,en;q=0.5","6759f53758fb6b98b9dbf3e2","67949641171f97c04e14fb34","6795122cff23ef835ce0161a","","null","<img  src='G_3.jpg' height='90'> <img   src='G_7.jpg' height='90'> <img   src='G_9.jpg' height='90'> <img id='selected'  src='G_5.jpg' height='90'> <img id='selected' src='G_1.jpg' height='90'>","null","Animation0",""
"","","","","","html-keyboard-response","50","310528","0.0-22.0","34","1","2025-01-25 16:33:04","af8d355d56820e421d246a7037deb6e6","66.128.195.228","Mozilla/5.0 (Windows NT 10.0; Win64; x64; rv:134.0) Gecko/20100101 Firefox/134.0","","Firefox","134.0","Windows","10.0","https://app.prolific.com/","en-US,en;q=0.5","6759f53758fb6b98b9dbf3e2","67949641171f97c04e14fb34","6795122cff23ef835ce0161a","","null","<img  src='G_3.jpg' height='90'> <img   src='G_7.jpg' height='90'> <img   src='G_9.jpg' height='90'> <img id='selected'  src='G_5.jpg' height='90'> <img id='selected' src='G_1.jpg' height='90'>","null","Animation0",""
"","","","","","html-keyboard-response","51","310833","0.0-23.0","34","1","2025-01-25 16:33:04","af8d355d56820e421d246a7037deb6e6","66.128.195.228","Mozilla/5.0 (Windows NT 10.0; Win64; x64; rv:134.0) Gecko/20100101 Firefox/134.0","","Firefox","134.0","Windows","10.0","https://app.prolific.com/","en-US,en;q=0.5","6759f53758fb6b98b9dbf3e2","67949641171f97c04e14fb34","6795122cff23ef835ce0161a","","null","<img  src='G_3.jpg' height='90'> <img   src='G_7.jpg' height='90'> <img   src='G_9.jpg' height='90'> <img   src='G_5.jpg' height='90'> <img  src='G_1.jpg' height='90'>","null","Animation0",""
"","","","","","html-keyboard-response","52","315023","0.0-24.0","34","1","2025-01-25 16:33:04","af8d355d56820e421d246a7037deb6e6","66.128.195.228","Mozilla/5.0 (Windows NT 10.0; Win64; x64; rv:134.0) Gecko/20100101 Firefox/134.0","","Firefox","134.0","Windows","10.0","https://app.prolific.com/","en-US,en;q=0.5","6759f53758fb6b98b9dbf3e2","67949641171f97c04e14fb34","6795122cff23ef835ce0161a","","4185","[""Did you notice any patterns? <br><br>Press Enter to watch that example again and follow the steps of Omgne Sort.""]","enter","",""
"","","","","","html-button-response","53","315444","0.0-25.0","34","1","2025-01-25 16:33:04","af8d355d56820e421d246a7037deb6e6","66.128.195.228","Mozilla/5.0 (Windows NT 10.0; Win64; x64; rv:134.0) Gecko/20100101 Firefox/134.0","","Firefox","134.0","Windows","10.0","https://app.prolific.com/","en-US,en;q=0.5","6759f53758fb6b98b9dbf3e2","67949641171f97c04e14fb34","6795122cff23ef835ce0161a","","null","<img id='selected' src='G_7.jpg' height='90'> <img src='G_3.jpg' height='90'> <img src='G_9.jpg' height='90'> <img src='G_5.jpg' height='90'> <img src='G_1.jpg' height='90'>","null","Learning example 0",""
"","","","","","html-button-response","54","315760","0.0-26.0","34","1","2025-01-25 16:33:04","af8d355d56820e421d246a7037deb6e6","66.128.195.228","Mozilla/5.0 (Windows NT 10.0; Win64; x64; rv:134.0) Gecko/20100101 Firefox/134.0","","Firefox","134.0","Windows","10.0","https://app.prolific.com/","en-US,en;q=0.5","6759f53758fb6b98b9dbf3e2","67949641171f97c04e14fb34","6795122cff23ef835ce0161a","","null","<img id='selected' src='G_7.jpg' height='90'> <img id='selected' src='G_3.jpg' height='90'> <img src='G_9.jpg' height='90'> <img src='G_5.jpg' height='90'> <img src='G_1.jpg' height='90'>","null","Learning example 0",""
"","","","","","html-button-response","55","316073","0.0-27.0","34","1","2025-01-25 16:33:04","af8d355d56820e421d246a7037deb6e6","66.128.195.228","Mozilla/5.0 (Windows NT 10.0; Win64; x64; rv:134.0) Gecko/20100101 Firefox/134.0","","Firefox","134.0","Windows","10.0","https://app.prolific.com/","en-US,en;q=0.5","6759f53758fb6b98b9dbf3e2","67949641171f97c04e14fb34","6795122cff23ef835ce0161a","","null","<img id='swapped' src='G_3.jpg' height='90'> <img id='swapped' src='G_7.jpg' height='90'> <img src='G_9.jpg' height='90'> <img src='G_5.jpg' height='90'> <img src='G_1.jpg' height='90'>","null","Learning example 0",""
"","","","","","html-button-response","56","321818","0.0-28.0-0.0-0.0","34","1","2025-01-25 16:33:04","af8d355d56820e421d246a7037deb6e6","66.128.195.228","Mozilla/5.0 (Windows NT 10.0; Win64; x64; rv:134.0) Gecko/20100101 Firefox/134.0","","Firefox","134.0","Windows","10.0","https://app.prolific.com/","en-US,en;q=0.5","6759f53758fb6b98b9dbf3e2","67949641171f97c04e14fb34","6795122cff23ef835ce0161a","","5740","<img id='swapped' src='G_3.jpg' height='90'> <img id='swapped' src='G_7.jpg' height='90'> <img src='G_9.jpg' height='90'> <img src='G_5.jpg' height='90'> <img src='G_1.jpg' height='90'>","0","Learning example 0",""
"","","","","","html-button-response","57","322263","0.0-28.1-0.1-0.1","34","1","2025-01-25 16:33:04","af8d355d56820e421d246a7037deb6e6","66.128.195.228","Mozilla/5.0 (Windows NT 10.0; Win64; x64; rv:134.0) Gecko/20100101 Firefox/134.0","","Firefox","134.0","Windows","10.0","https://app.prolific.com/","en-US,en;q=0.5","6759f53758fb6b98b9dbf3e2","67949641171f97c04e14fb34","6795122cff23ef835ce0161a","","441","<img id='swapped' src='G_3.jpg' height='90'> <img id='swapped' src='G_7.jpg' height='90'> <img src='G_9.jpg' height='90'> <img src='G_5.jpg' height='90'> <img src='G_1.jpg' height='90'>","1","Learning example 0",""
"","","","","","html-button-response","58","322474","0.0-29.0","34","1","2025-01-25 16:33:04","af8d355d56820e421d246a7037deb6e6","66.128.195.228","Mozilla/5.0 (Windows NT 10.0; Win64; x64; rv:134.0) Gecko/20100101 Firefox/134.0","","Firefox","134.0","Windows","10.0","https://app.prolific.com/","en-US,en;q=0.5","6759f53758fb6b98b9dbf3e2","67949641171f97c04e14fb34","6795122cff23ef835ce0161a","","null","<img  src='G_3.jpg' height='90'> <img  src='G_7.jpg' height='90'> <img src='G_9.jpg' height='90'> <img src='G_5.jpg' height='90'> <img src='G_1.jpg' height='90'>","null","Learning example 0",""
"","","","","","html-button-response","59","322889","0.0-30.0","34","1","2025-01-25 16:33:04","af8d355d56820e421d246a7037deb6e6","66.128.195.228","Mozilla/5.0 (Windows NT 10.0; Win64; x64; rv:134.0) Gecko/20100101 Firefox/134.0","","Firefox","134.0","Windows","10.0","https://app.prolific.com/","en-US,en;q=0.5","6759f53758fb6b98b9dbf3e2","67949641171f97c04e14fb34","6795122cff23ef835ce0161a","","null","<img  src='G_3.jpg' height='90'> <img id='selected'  src='G_7.jpg' height='90'> <img src='G_9.jpg' height='90'> <img src='G_5.jpg' height='90'> <img src='G_1.jpg' height='90'>","null","Learning example 0",""
"","","","","","html-button-response","60","323203","0.0-31.0","34","1","2025-01-25 16:33:04","af8d355d56820e421d246a7037deb6e6","66.128.195.228","Mozilla/5.0 (Windows NT 10.0; Win64; x64; rv:134.0) Gecko/20100101 Firefox/134.0","","Firefox","134.0","Windows","10.0","https://app.prolific.com/","en-US,en;q=0.5","6759f53758fb6b98b9dbf3e2","67949641171f97c04e14fb34","6795122cff23ef835ce0161a","","null","<img  src='G_3.jpg' height='90'> <img id='selected'  src='G_7.jpg' height='90'> <img id='selected' src='G_9.jpg' height='90'> <img src='G_5.jpg' height='90'> <img src='G_1.jpg' height='90'>","null","Learning example 0",""
"","","","","","html-button-response","61","323518","0.0-32.0","34","1","2025-01-25 16:33:04","af8d355d56820e421d246a7037deb6e6","66.128.195.228","Mozilla/5.0 (Windows NT 10.0; Win64; x64; rv:134.0) Gecko/20100101 Firefox/134.0","","Firefox","134.0","Windows","10.0","https://app.prolific.com/","en-US,en;q=0.5","6759f53758fb6b98b9dbf3e2","67949641171f97c04e14fb34","6795122cff23ef835ce0161a","","null","<img  src='G_3.jpg' height='90'> <img id='selected'  src='G_7.jpg' height='90'> <img id='selected' src='G_9.jpg' height='90'> <img src='G_5.jpg' height='90'> <img src='G_1.jpg' height='90'>","null","Learning example 0",""
"","","","","","html-button-response","62","326967","0.0-33.0-0.0-0.0","34","1","2025-01-25 16:33:04","af8d355d56820e421d246a7037deb6e6","66.128.195.228","Mozilla/5.0 (Windows NT 10.0; Win64; x64; rv:134.0) Gecko/20100101 Firefox/134.0","","Firefox","134.0","Windows","10.0","https://app.prolific.com/","en-US,en;q=0.5","6759f53758fb6b98b9dbf3e2","67949641171f97c04e14fb34","6795122cff23ef835ce0161a","","3441","<img  src='G_3.jpg' height='90'> <img id='selected'  src='G_7.jpg' height='90'> <img id='selected' src='G_9.jpg' height='90'> <img src='G_5.jpg' height='90'> <img src='G_1.jpg' height='90'>","2","Learning example 0",""
"","","","","","html-button-response","63","328182","0.0-33.1-0.1-0.1","34","1","2025-01-25 16:33:04","af8d355d56820e421d246a7037deb6e6","66.128.195.228","Mozilla/5.0 (Windows NT 10.0; Win64; x64; rv:134.0) Gecko/20100101 Firefox/134.0","","Firefox","134.0","Windows","10.0","https://app.prolific.com/","en-US,en;q=0.5","6759f53758fb6b98b9dbf3e2","67949641171f97c04e14fb34","6795122cff23ef835ce0161a","","1212","<img  src='G_3.jpg' height='90'> <img id='selected'  src='G_7.jpg' height='90'> <img id='selected' src='G_9.jpg' height='90'> <img src='G_5.jpg' height='90'> <img src='G_1.jpg' height='90'>","1","Learning example 0",""
"","","","","","html-button-response","64","328402","0.0-34.0","34","1","2025-01-25 16:33:04","af8d355d56820e421d246a7037deb6e6","66.128.195.228","Mozilla/5.0 (Windows NT 10.0; Win64; x64; rv:134.0) Gecko/20100101 Firefox/134.0","","Firefox","134.0","Windows","10.0","https://app.prolific.com/","en-US,en;q=0.5","6759f53758fb6b98b9dbf3e2","67949641171f97c04e14fb34","6795122cff23ef835ce0161a","","null","<img  src='G_3.jpg' height='90'> <img   src='G_7.jpg' height='90'> <img  src='G_9.jpg' height='90'> <img src='G_5.jpg' height='90'> <img src='G_1.jpg' height='90'>","null","Learning example 0",""
"","","","","","html-button-response","65","328816","0.0-35.0","34","1","2025-01-25 16:33:04","af8d355d56820e421d246a7037deb6e6","66.128.195.228","Mozilla/5.0 (Windows NT 10.0; Win64; x64; rv:134.0) Gecko/20100101 Firefox/134.0","","Firefox","134.0","Windows","10.0","https://app.prolific.com/","en-US,en;q=0.5","6759f53758fb6b98b9dbf3e2","67949641171f97c04e14fb34","6795122cff23ef835ce0161a","","null","<img  src='G_3.jpg' height='90'> <img   src='G_7.jpg' height='90'> <img id='selected'  src='G_9.jpg' height='90'> <img src='G_5.jpg' height='90'> <img src='G_1.jpg' height='90'>","null","Learning example 0",""
"","","","","","html-button-response","66","329150","0.0-36.0","34","1","2025-01-25 16:33:04","af8d355d56820e421d246a7037deb6e6","66.128.195.228","Mozilla/5.0 (Windows NT 10.0; Win64; x64; rv:134.0) Gecko/20100101 Firefox/134.0","","Firefox","134.0","Windows","10.0","https://app.prolific.com/","en-US,en;q=0.5","6759f53758fb6b98b9dbf3e2","67949641171f97c04e14fb34","6795122cff23ef835ce0161a","","null","<img  src='G_3.jpg' height='90'> <img   src='G_7.jpg' height='90'> <img id='selected'  src='G_9.jpg' height='90'> <img id='selected' src='G_5.jpg' height='90'> <img src='G_1.jpg' height='90'>","null","Learning example 0",""
"","","","","","html-button-response","67","329463","0.0-37.0","34","1","2025-01-25 16:33:04","af8d355d56820e421d246a7037deb6e6","66.128.195.228","Mozilla/5.0 (Windows NT 10.0; Win64; x64; rv:134.0) Gecko/20100101 Firefox/134.0","","Firefox","134.0","Windows","10.0","https://app.prolific.com/","en-US,en;q=0.5","6759f53758fb6b98b9dbf3e2","67949641171f97c04e14fb34","6795122cff23ef835ce0161a","","null","<img  src='G_3.jpg' height='90'> <img   src='G_7.jpg' height='90'> <img id='selected'  src='G_9.jpg' height='90'> <img id='selected' src='G_5.jpg' height='90'> <img src='G_1.jpg' height='90'>","null","Learning example 0",""
"","","","","","html-button-response","68","329991","0.0-38.0-0.0-0.0","34","1","2025-01-25 16:33:04","af8d355d56820e421d246a7037deb6e6","66.128.195.228","Mozilla/5.0 (Windows NT 10.0; Win64; x64; rv:134.0) Gecko/20100101 Firefox/134.0","","Firefox","134.0","Windows","10.0","https://app.prolific.com/","en-US,en;q=0.5","6759f53758fb6b98b9dbf3e2","67949641171f97c04e14fb34","6795122cff23ef835ce0161a","","517","<img  src='G_3.jpg' height='90'> <img   src='G_7.jpg' height='90'> <img id='selected'  src='G_9.jpg' height='90'> <img id='selected' src='G_5.jpg' height='90'> <img src='G_1.jpg' height='90'>","2","Learning example 0",""
"","","","","","html-button-response","69","330494","0.0-38.1-0.1-0.1","34","1","2025-01-25 16:33:04","af8d355d56820e421d246a7037deb6e6","66.128.195.228","Mozilla/5.0 (Windows NT 10.0; Win64; x64; rv:134.0) Gecko/20100101 Firefox/134.0","","Firefox","134.0","Windows","10.0","https://app.prolific.com/","en-US,en;q=0.5","6759f53758fb6b98b9dbf3e2","67949641171f97c04e14fb34","6795122cff23ef835ce0161a","","500","<img  src='G_3.jpg' height='90'> <img   src='G_7.jpg' height='90'> <img id='selected'  src='G_9.jpg' height='90'> <img id='selected' src='G_5.jpg' height='90'> <img src='G_1.jpg' height='90'>","3","Learning example 0",""
"","","","","","html-button-response","70","330703","0.0-39.0","34","1","2025-01-25 16:33:04","af8d355d56820e421d246a7037deb6e6","66.128.195.228","Mozilla/5.0 (Windows NT 10.0; Win64; x64; rv:134.0) Gecko/20100101 Firefox/134.0","","Firefox","134.0","Windows","10.0","https://app.prolific.com/","en-US,en;q=0.5","6759f53758fb6b98b9dbf3e2","67949641171f97c04e14fb34","6795122cff23ef835ce0161a","","null","<img  src='G_3.jpg' height='90'> <img   src='G_7.jpg' height='90'> <img   src='G_9.jpg' height='90'> <img  src='G_5.jpg' height='90'> <img src='G_1.jpg' height='90'>","null","Learning example 0",""
"","","","","","html-button-response","71","331118","0.0-40.0","34","1","2025-01-25 16:33:04","af8d355d56820e421d246a7037deb6e6","66.128.195.228","Mozilla/5.0 (Windows NT 10.0; Win64; x64; rv:134.0) Gecko/20100101 Firefox/134.0","","Firefox","134.0","Windows","10.0","https://app.prolific.com/","en-US,en;q=0.5","6759f53758fb6b98b9dbf3e2","67949641171f97c04e14fb34","6795122cff23ef835ce0161a","","null","<img  src='G_3.jpg' height='90'> <img   src='G_7.jpg' height='90'> <img   src='G_9.jpg' height='90'> <img id='selected'  src='G_5.jpg' height='90'> <img src='G_1.jpg' height='90'>","null","Learning example 0",""
"","","","","","html-button-response","72","331433","0.0-41.0","34","1","2025-01-25 16:33:04","af8d355d56820e421d246a7037deb6e6","66.128.195.228","Mozilla/5.0 (Windows NT 10.0; Win64; x64; rv:134.0) Gecko/20100101 Firefox/134.0","","Firefox","134.0","Windows","10.0","https://app.prolific.com/","en-US,en;q=0.5","6759f53758fb6b98b9dbf3e2","67949641171f97c04e14fb34","6795122cff23ef835ce0161a","","null","<img  src='G_3.jpg' height='90'> <img   src='G_7.jpg' height='90'> <img   src='G_9.jpg' height='90'> <img id='selected'  src='G_5.jpg' height='90'> <img id='selected' src='G_1.jpg' height='90'>","null","Learning example 0",""
"","","","","","html-button-response","73","331746","0.0-42.0","34","1","2025-01-25 16:33:04","af8d355d56820e421d246a7037deb6e6","66.128.195.228","Mozilla/5.0 (Windows NT 10.0; Win64; x64; rv:134.0) Gecko/20100101 Firefox/134.0","","Firefox","134.0","Windows","10.0","https://app.prolific.com/","en-US,en;q=0.5","6759f53758fb6b98b9dbf3e2","67949641171f97c04e14fb34","6795122cff23ef835ce0161a","","null","<img  src='G_3.jpg' height='90'> <img   src='G_7.jpg' height='90'> <img   src='G_9.jpg' height='90'> <img id='selected'  src='G_5.jpg' height='90'> <img id='selected' src='G_1.jpg' height='90'>","null","Learning example 0",""
"","","","","","html-button-response","74","335782","0.0-43.0-0.0-0.0","34","1","2025-01-25 16:33:04","af8d355d56820e421d246a7037deb6e6","66.128.195.228","Mozilla/5.0 (Windows NT 10.0; Win64; x64; rv:134.0) Gecko/20100101 Firefox/134.0","","Firefox","134.0","Windows","10.0","https://app.prolific.com/","en-US,en;q=0.5","6759f53758fb6b98b9dbf3e2","67949641171f97c04e14fb34","6795122cff23ef835ce0161a","","4026","<img  src='G_3.jpg' height='90'> <img   src='G_7.jpg' height='90'> <img   src='G_9.jpg' height='90'> <img id='selected'  src='G_5.jpg' height='90'> <img id='selected' src='G_1.jpg' height='90'>","3","Learning example 0",""
"","","","","","html-button-response","75","336887","0.0-43.1-0.1-0.1","34","1","2025-01-25 16:33:04","af8d355d56820e421d246a7037deb6e6","66.128.195.228","Mozilla/5.0 (Windows NT 10.0; Win64; x64; rv:134.0) Gecko/20100101 Firefox/134.0","","Firefox","134.0","Windows","10.0","https://app.prolific.com/","en-US,en;q=0.5","6759f53758fb6b98b9dbf3e2","67949641171f97c04e14fb34","6795122cff23ef835ce0161a","","1102","<img  src='G_3.jpg' height='90'> <img   src='G_7.jpg' height='90'> <img   src='G_9.jpg' height='90'> <img id='selected'  src='G_5.jpg' height='90'> <img id='selected' src='G_1.jpg' height='90'>","4","Learning example 0",""
"","","","","","html-button-response","76","337101","0.0-44.0","34","1","2025-01-25 16:33:04","af8d355d56820e421d246a7037deb6e6","66.128.195.228","Mozilla/5.0 (Windows NT 10.0; Win64; x64; rv:134.0) Gecko/20100101 Firefox/134.0","","Firefox","134.0","Windows","10.0","https://app.prolific.com/","en-US,en;q=0.5","6759f53758fb6b98b9dbf3e2","67949641171f97c04e14fb34","6795122cff23ef835ce0161a","","null","<img  src='G_3.jpg' height='90'> <img   src='G_7.jpg' height='90'> <img   src='G_9.jpg' height='90'> <img   src='G_5.jpg' height='90'> <img  src='G_1.jpg' height='90'>","null","Learning example 0",""
"","","","","","html-keyboard-response","77","342547","0.0-45.0","34","1","2025-01-25 16:33:04","af8d355d56820e421d246a7037deb6e6","66.128.195.228","Mozilla/5.0 (Windows NT 10.0; Win64; x64; rv:134.0) Gecko/20100101 Firefox/134.0","","Firefox","134.0","Windows","10.0","https://app.prolific.com/","en-US,en;q=0.5","6759f53758fb6b98b9dbf3e2","67949641171f97c04e14fb34","6795122cff23ef835ce0161a","","5440","[""Final order was 1,2,3,4,5. The initial order was 2,1,3,4,5.<br>It took 1 swaps to sort it correctly with Omgne Sort. <br><br>Press Enter to continue.""]","enter","",""
"","","","","","html-keyboard-response","78","343696","0.0-46.0","34","1","2025-01-25 16:33:04","af8d355d56820e421d246a7037deb6e6","66.128.195.228","Mozilla/5.0 (Windows NT 10.0; Win64; x64; rv:134.0) Gecko/20100101 Firefox/134.0","","Firefox","134.0","Windows","10.0","https://app.prolific.com/","en-US,en;q=0.5","6759f53758fb6b98b9dbf3e2","67949641171f97c04e14fb34","6795122cff23ef835ce0161a","","1147","[""Example 2<br><br>You will watch Omnge Sort in action. Try to identify any patterns in the comparisons made by this method. <br><br>Press Enter to continue.""]","enter","",""
"","","","","","html-keyboard-response","79","344209","0.0-47.0","34","1","2025-01-25 16:33:04","af8d355d56820e421d246a7037deb6e6","66.128.195.228","Mozilla/5.0 (Windows NT 10.0; Win64; x64; rv:134.0) Gecko/20100101 Firefox/134.0","","Firefox","134.0","Windows","10.0","https://app.prolific.com/","en-US,en;q=0.5","6759f53758fb6b98b9dbf3e2","67949641171f97c04e14fb34","6795122cff23ef835ce0161a","","null","<img id='selected' src='G_5.jpg' height='90'> <img src='G_2.jpg' height='90'> <img src='G_8.jpg' height='90'> <img src='G_4.jpg' height='90'> <img src='G_6.jpg' height='90'> <img src='G_3.jpg' height='90'> <img src='G_7.jpg' height='90'> <img src='G_1.jpg' height='90'>","null","Animation1",""
"","","","","","html-keyboard-response","80","344719","0.0-48.0","34","1","2025-01-25 16:33:04","af8d355d56820e421d246a7037deb6e6","66.128.195.228","Mozilla/5.0 (Windows NT 10.0; Win64; x64; rv:134.0) Gecko/20100101 Firefox/134.0","","Firefox","134.0","Windows","10.0","https://app.prolific.com/","en-US,en;q=0.5","6759f53758fb6b98b9dbf3e2","67949641171f97c04e14fb34","6795122cff23ef835ce0161a","","null","<img id='selected' src='G_5.jpg' height='90'> <img id='selected' src='G_2.jpg' height='90'> <img src='G_8.jpg' height='90'> <img src='G_4.jpg' height='90'> <img src='G_6.jpg' height='90'> <img src='G_3.jpg' height='90'> <img src='G_7.jpg' height='90'> <img src='G_1.jpg' height='90'>","null","Animation1",""
"","","","","","html-keyboard-response","81","345239","0.0-49.0","34","1","2025-01-25 16:33:04","af8d355d56820e421d246a7037deb6e6","66.128.195.228","Mozilla/5.0 (Windows NT 10.0; Win64; x64; rv:134.0) Gecko/20100101 Firefox/134.0","","Firefox","134.0","Windows","10.0","https://app.prolific.com/","en-US,en;q=0.5","6759f53758fb6b98b9dbf3e2","67949641171f97c04e14fb34","6795122cff23ef835ce0161a","","null","<img id='selected' src='G_5.jpg' height='90'> <img id='selected' src='G_2.jpg' height='90'> <img src='G_8.jpg' height='90'> <img src='G_4.jpg' height='90'> <img src='G_6.jpg' height='90'> <img src='G_3.jpg' height='90'> <img src='G_7.jpg' height='90'> <img src='G_1.jpg' height='90'>","null","Animation1",""
"","","","","","html-keyboard-response","82","345555","0.0-50.0","34","1","2025-01-25 16:33:04","af8d355d56820e421d246a7037deb6e6","66.128.195.228","Mozilla/5.0 (Windows NT 10.0; Win64; x64; rv:134.0) Gecko/20100101 Firefox/134.0","","Firefox","134.0","Windows","10.0","https://app.prolific.com/","en-US,en;q=0.5","6759f53758fb6b98b9dbf3e2","67949641171f97c04e14fb34","6795122cff23ef835ce0161a","","null","<img  src='G_5.jpg' height='90'> <img  src='G_2.jpg' height='90'> <img src='G_8.jpg' height='90'> <img src='G_4.jpg' height='90'> <img src='G_6.jpg' height='90'> <img src='G_3.jpg' height='90'> <img src='G_7.jpg' height='90'> <img src='G_1.jpg' height='90'>","null","Animation1",""
"","","","","","html-keyboard-response","83","346063","0.0-51.0","34","1","2025-01-25 16:33:04","af8d355d56820e421d246a7037deb6e6","66.128.195.228","Mozilla/5.0 (Windows NT 10.0; Win64; x64; rv:134.0) Gecko/20100101 Firefox/134.0","","Firefox","134.0","Windows","10.0","https://app.prolific.com/","en-US,en;q=0.5","6759f53758fb6b98b9dbf3e2","67949641171f97c04e14fb34","6795122cff23ef835ce0161a","","null","<img  src='G_5.jpg' height='90'> <img id='selected'  src='G_2.jpg' height='90'> <img src='G_8.jpg' height='90'> <img src='G_4.jpg' height='90'> <img src='G_6.jpg' height='90'> <img src='G_3.jpg' height='90'> <img src='G_7.jpg' height='90'> <img src='G_1.jpg' height='90'>","null","Animation1",""
"","","","","","html-keyboard-response","84","346584","0.0-52.0","34","1","2025-01-25 16:33:04","af8d355d56820e421d246a7037deb6e6","66.128.195.228","Mozilla/5.0 (Windows NT 10.0; Win64; x64; rv:134.0) Gecko/20100101 Firefox/134.0","","Firefox","134.0","Windows","10.0","https://app.prolific.com/","en-US,en;q=0.5","6759f53758fb6b98b9dbf3e2","67949641171f97c04e14fb34","6795122cff23ef835ce0161a","","null","<img  src='G_5.jpg' height='90'> <img id='selected'  src='G_2.jpg' height='90'> <img id='selected' src='G_8.jpg' height='90'> <img src='G_4.jpg' height='90'> <img src='G_6.jpg' height='90'> <img src='G_3.jpg' height='90'> <img src='G_7.jpg' height='90'> <img src='G_1.jpg' height='90'>","null","Animation1",""
"","","","","","html-keyboard-response","85","347094","0.0-53.0","34","1","2025-01-25 16:33:04","af8d355d56820e421d246a7037deb6e6","66.128.195.228","Mozilla/5.0 (Windows NT 10.0; Win64; x64; rv:134.0) Gecko/20100101 Firefox/134.0","","Firefox","134.0","Windows","10.0","https://app.prolific.com/","en-US,en;q=0.5","6759f53758fb6b98b9dbf3e2","67949641171f97c04e14fb34","6795122cff23ef835ce0161a","","null","<img  src='G_5.jpg' height='90'> <img id='swapped' src='G_8.jpg' height='90'> <img id='swapped'  src='G_2.jpg' height='90'> <img src='G_4.jpg' height='90'> <img src='G_6.jpg' height='90'> <img src='G_3.jpg' height='90'> <img src='G_7.jpg' height='90'> <img src='G_1.jpg' height='90'>","null","Animation1",""
"","","","","","html-keyboard-response","86","347413","0.0-54.0","34","1","2025-01-25 16:33:04","af8d355d56820e421d246a7037deb6e6","66.128.195.228","Mozilla/5.0 (Windows NT 10.0; Win64; x64; rv:134.0) Gecko/20100101 Firefox/134.0","","Firefox","134.0","Windows","10.0","https://app.prolific.com/","en-US,en;q=0.5","6759f53758fb6b98b9dbf3e2","67949641171f97c04e14fb34","6795122cff23ef835ce0161a","","null","<img  src='G_5.jpg' height='90'> <img  src='G_8.jpg' height='90'> <img   src='G_2.jpg' height='90'> <img src='G_4.jpg' height='90'> <img src='G_6.jpg' height='90'> <img src='G_3.jpg' height='90'> <img src='G_7.jpg' height='90'> <img src='G_1.jpg' height='90'>","null","Animation1",""
"","","","","","html-keyboard-response","87","347923","0.0-55.0","34","1","2025-01-25 16:33:04","af8d355d56820e421d246a7037deb6e6","66.128.195.228","Mozilla/5.0 (Windows NT 10.0; Win64; x64; rv:134.0) Gecko/20100101 Firefox/134.0","","Firefox","134.0","Windows","10.0","https://app.prolific.com/","en-US,en;q=0.5","6759f53758fb6b98b9dbf3e2","67949641171f97c04e14fb34","6795122cff23ef835ce0161a","","null","<img id='selected'  src='G_5.jpg' height='90'> <img  src='G_8.jpg' height='90'> <img   src='G_2.jpg' height='90'> <img src='G_4.jpg' height='90'> <img src='G_6.jpg' height='90'> <img src='G_3.jpg' height='90'> <img src='G_7.jpg' height='90'> <img src='G_1.jpg' height='90'>","null","Animation1",""
"","","","","","html-keyboard-response","88","348432","0.0-56.0","34","1","2025-01-25 16:33:04","af8d355d56820e421d246a7037deb6e6","66.128.195.228","Mozilla/5.0 (Windows NT 10.0; Win64; x64; rv:134.0) Gecko/20100101 Firefox/134.0","","Firefox","134.0","Windows","10.0","https://app.prolific.com/","en-US,en;q=0.5","6759f53758fb6b98b9dbf3e2","67949641171f97c04e14fb34","6795122cff23ef835ce0161a","","null","<img id='selected'  src='G_5.jpg' height='90'> <img id='selected'  src='G_8.jpg' height='90'> <img   src='G_2.jpg' height='90'> <img src='G_4.jpg' height='90'> <img src='G_6.jpg' height='90'> <img src='G_3.jpg' height='90'> <img src='G_7.jpg' height='90'> <img src='G_1.jpg' height='90'>","null","Animation1",""
"","","","","","html-keyboard-response","89","348950","0.0-57.0","34","1","2025-01-25 16:33:04","af8d355d56820e421d246a7037deb6e6","66.128.195.228","Mozilla/5.0 (Windows NT 10.0; Win64; x64; rv:134.0) Gecko/20100101 Firefox/134.0","","Firefox","134.0","Windows","10.0","https://app.prolific.com/","en-US,en;q=0.5","6759f53758fb6b98b9dbf3e2","67949641171f97c04e14fb34","6795122cff23ef835ce0161a","","null","<img id='swapped'  src='G_8.jpg' height='90'> <img id='swapped'  src='G_5.jpg' height='90'> <img   src='G_2.jpg' height='90'> <img src='G_4.jpg' height='90'> <img src='G_6.jpg' height='90'> <img src='G_3.jpg' height='90'> <img src='G_7.jpg' height='90'> <img src='G_1.jpg' height='90'>","null","Animation1",""
"","","","","","html-keyboard-response","90","349261","0.0-58.0","34","1","2025-01-25 16:33:04","af8d355d56820e421d246a7037deb6e6","66.128.195.228","Mozilla/5.0 (Windows NT 10.0; Win64; x64; rv:134.0) Gecko/20100101 Firefox/134.0","","Firefox","134.0","Windows","10.0","https://app.prolific.com/","en-US,en;q=0.5","6759f53758fb6b98b9dbf3e2","67949641171f97c04e14fb34","6795122cff23ef835ce0161a","","null","<img   src='G_8.jpg' height='90'> <img   src='G_5.jpg' height='90'> <img   src='G_2.jpg' height='90'> <img src='G_4.jpg' height='90'> <img src='G_6.jpg' height='90'> <img src='G_3.jpg' height='90'> <img src='G_7.jpg' height='90'> <img src='G_1.jpg' height='90'>","null","Animation1",""
"","","","","","html-keyboard-response","91","349769","0.0-59.0","34","1","2025-01-25 16:33:04","af8d355d56820e421d246a7037deb6e6","66.128.195.228","Mozilla/5.0 (Windows NT 10.0; Win64; x64; rv:134.0) Gecko/20100101 Firefox/134.0","","Firefox","134.0","Windows","10.0","https://app.prolific.com/","en-US,en;q=0.5","6759f53758fb6b98b9dbf3e2","67949641171f97c04e14fb34","6795122cff23ef835ce0161a","","null","<img   src='G_8.jpg' height='90'> <img   src='G_5.jpg' height='90'> <img id='selected'   src='G_2.jpg' height='90'> <img src='G_4.jpg' height='90'> <img src='G_6.jpg' height='90'> <img src='G_3.jpg' height='90'> <img src='G_7.jpg' height='90'> <img src='G_1.jpg' height='90'>","null","Animation1",""
"","","","","","html-keyboard-response","92","350278","0.0-60.0","34","1","2025-01-25 16:33:04","af8d355d56820e421d246a7037deb6e6","66.128.195.228","Mozilla/5.0 (Windows NT 10.0; Win64; x64; rv:134.0) Gecko/20100101 Firefox/134.0","","Firefox","134.0","Windows","10.0","https://app.prolific.com/","en-US,en;q=0.5","6759f53758fb6b98b9dbf3e2","67949641171f97c04e14fb34","6795122cff23ef835ce0161a","","null","<img   src='G_8.jpg' height='90'> <img   src='G_5.jpg' height='90'> <img id='selected'   src='G_2.jpg' height='90'> <img id='selected' src='G_4.jpg' height='90'> <img src='G_6.jpg' height='90'> <img src='G_3.jpg' height='90'> <img src='G_7.jpg' height='90'> <img src='G_1.jpg' height='90'>","null","Animation1",""
"","","","","","html-keyboard-response","93","350798","0.0-61.0","34","1","2025-01-25 16:33:04","af8d355d56820e421d246a7037deb6e6","66.128.195.228","Mozilla/5.0 (Windows NT 10.0; Win64; x64; rv:134.0) Gecko/20100101 Firefox/134.0","","Firefox","134.0","Windows","10.0","https://app.prolific.com/","en-US,en;q=0.5","6759f53758fb6b98b9dbf3e2","67949641171f97c04e14fb34","6795122cff23ef835ce0161a","","null","<img   src='G_8.jpg' height='90'> <img   src='G_5.jpg' height='90'> <img id='swapped' src='G_4.jpg' height='90'> <img id='swapped'   src='G_2.jpg' height='90'> <img src='G_6.jpg' height='90'> <img src='G_3.jpg' height='90'> <img src='G_7.jpg' height='90'> <img src='G_1.jpg' height='90'>","null","Animation1",""
"","","","","","html-keyboard-response","94","351111","0.0-62.0","34","1","2025-01-25 16:33:04","af8d355d56820e421d246a7037deb6e6","66.128.195.228","Mozilla/5.0 (Windows NT 10.0; Win64; x64; rv:134.0) Gecko/20100101 Firefox/134.0","","Firefox","134.0","Windows","10.0","https://app.prolific.com/","en-US,en;q=0.5","6759f53758fb6b98b9dbf3e2","67949641171f97c04e14fb34","6795122cff23ef835ce0161a","","null","<img   src='G_8.jpg' height='90'> <img   src='G_5.jpg' height='90'> <img  src='G_4.jpg' height='90'> <img    src='G_2.jpg' height='90'> <img src='G_6.jpg' height='90'> <img src='G_3.jpg' height='90'> <img src='G_7.jpg' height='90'> <img src='G_1.jpg' height='90'>","null","Animation1",""
"","","","","","html-keyboard-response","95","351620","0.0-63.0","34","1","2025-01-25 16:33:04","af8d355d56820e421d246a7037deb6e6","66.128.195.228","Mozilla/5.0 (Windows NT 10.0; Win64; x64; rv:134.0) Gecko/20100101 Firefox/134.0","","Firefox","134.0","Windows","10.0","https://app.prolific.com/","en-US,en;q=0.5","6759f53758fb6b98b9dbf3e2","67949641171f97c04e14fb34","6795122cff23ef835ce0161a","","null","<img   src='G_8.jpg' height='90'> <img id='selected'   src='G_5.jpg' height='90'> <img  src='G_4.jpg' height='90'> <img    src='G_2.jpg' height='90'> <img src='G_6.jpg' height='90'> <img src='G_3.jpg' height='90'> <img src='G_7.jpg' height='90'> <img src='G_1.jpg' height='90'>","null","Animation1",""
"","","","","","html-keyboard-response","96","352134","0.0-64.0","34","1","2025-01-25 16:33:04","af8d355d56820e421d246a7037deb6e6","66.128.195.228","Mozilla/5.0 (Windows NT 10.0; Win64; x64; rv:134.0) Gecko/20100101 Firefox/134.0","","Firefox","134.0","Windows","10.0","https://app.prolific.com/","en-US,en;q=0.5","6759f53758fb6b98b9dbf3e2","67949641171f97c04e14fb34","6795122cff23ef835ce0161a","","null","<img   src='G_8.jpg' height='90'> <img id='selected'   src='G_5.jpg' height='90'> <img id='selected'  src='G_4.jpg' height='90'> <img    src='G_2.jpg' height='90'> <img src='G_6.jpg' height='90'> <img src='G_3.jpg' height='90'> <img src='G_7.jpg' height='90'> <img src='G_1.jpg' height='90'>","null","Animation1",""
"","","","","","html-keyboard-response","97","352648","0.0-65.0","34","1","2025-01-25 16:33:04","af8d355d56820e421d246a7037deb6e6","66.128.195.228","Mozilla/5.0 (Windows NT 10.0; Win64; x64; rv:134.0) Gecko/20100101 Firefox/134.0","","Firefox","134.0","Windows","10.0","https://app.prolific.com/","en-US,en;q=0.5","6759f53758fb6b98b9dbf3e2","67949641171f97c04e14fb34","6795122cff23ef835ce0161a","","null","<img   src='G_8.jpg' height='90'> <img id='swapped'  src='G_4.jpg' height='90'> <img id='swapped'   src='G_5.jpg' height='90'> <img    src='G_2.jpg' height='90'> <img src='G_6.jpg' height='90'> <img src='G_3.jpg' height='90'> <img src='G_7.jpg' height='90'> <img src='G_1.jpg' height='90'>","null","Animation1",""
"","","","","","html-keyboard-response","98","352959","0.0-66.0","34","1","2025-01-25 16:33:04","af8d355d56820e421d246a7037deb6e6","66.128.195.228","Mozilla/5.0 (Windows NT 10.0; Win64; x64; rv:134.0) Gecko/20100101 Firefox/134.0","","Firefox","134.0","Windows","10.0","https://app.prolific.com/","en-US,en;q=0.5","6759f53758fb6b98b9dbf3e2","67949641171f97c04e14fb34","6795122cff23ef835ce0161a","","null","<img   src='G_8.jpg' height='90'> <img   src='G_4.jpg' height='90'> <img    src='G_5.jpg' height='90'> <img    src='G_2.jpg' height='90'> <img src='G_6.jpg' height='90'> <img src='G_3.jpg' height='90'> <img src='G_7.jpg' height='90'> <img src='G_1.jpg' height='90'>","null","Animation1",""
"","","","","","html-keyboard-response","99","353477","0.0-67.0","34","1","2025-01-25 16:33:04","af8d355d56820e421d246a7037deb6e6","66.128.195.228","Mozilla/5.0 (Windows NT 10.0; Win64; x64; rv:134.0) Gecko/20100101 Firefox/134.0","","Firefox","134.0","Windows","10.0","https://app.prolific.com/","en-US,en;q=0.5","6759f53758fb6b98b9dbf3e2","67949641171f97c04e14fb34","6795122cff23ef835ce0161a","","null","<img id='selected'   src='G_8.jpg' height='90'> <img   src='G_4.jpg' height='90'> <img    src='G_5.jpg' height='90'> <img    src='G_2.jpg' height='90'> <img src='G_6.jpg' height='90'> <img src='G_3.jpg' height='90'> <img src='G_7.jpg' height='90'> <img src='G_1.jpg' height='90'>","null","Animation1",""
"","","","","","html-keyboard-response","100","353985","0.0-68.0","34","1","2025-01-25 16:33:04","af8d355d56820e421d246a7037deb6e6","66.128.195.228","Mozilla/5.0 (Windows NT 10.0; Win64; x64; rv:134.0) Gecko/20100101 Firefox/134.0","","Firefox","134.0","Windows","10.0","https://app.prolific.com/","en-US,en;q=0.5","6759f53758fb6b98b9dbf3e2","67949641171f97c04e14fb34","6795122cff23ef835ce0161a","","null","<img id='selected'   src='G_8.jpg' height='90'> <img id='selected'   src='G_4.jpg' height='90'> <img    src='G_5.jpg' height='90'> <img    src='G_2.jpg' height='90'> <img src='G_6.jpg' height='90'> <img src='G_3.jpg' height='90'> <img src='G_7.jpg' height='90'> <img src='G_1.jpg' height='90'>","null","Animation1",""
"","","","","","html-keyboard-response","101","354495","0.0-69.0","34","1","2025-01-25 16:33:04","af8d355d56820e421d246a7037deb6e6","66.128.195.228","Mozilla/5.0 (Windows NT 10.0; Win64; x64; rv:134.0) Gecko/20100101 Firefox/134.0","","Firefox","134.0","Windows","10.0","https://app.prolific.com/","en-US,en;q=0.5","6759f53758fb6b98b9dbf3e2","67949641171f97c04e14fb34","6795122cff23ef835ce0161a","","null","<img id='swapped'   src='G_4.jpg' height='90'> <img id='swapped'   src='G_8.jpg' height='90'> <img    src='G_5.jpg' height='90'> <img    src='G_2.jpg' height='90'> <img src='G_6.jpg' height='90'> <img src='G_3.jpg' height='90'> <img src='G_7.jpg' height='90'> <img src='G_1.jpg' height='90'>","null","Animation1",""
"","","","","","html-keyboard-response","102","354806","0.0-70.0","34","1","2025-01-25 16:33:04","af8d355d56820e421d246a7037deb6e6","66.128.195.228","Mozilla/5.0 (Windows NT 10.0; Win64; x64; rv:134.0) Gecko/20100101 Firefox/134.0","","Firefox","134.0","Windows","10.0","https://app.prolific.com/","en-US,en;q=0.5","6759f53758fb6b98b9dbf3e2","67949641171f97c04e14fb34","6795122cff23ef835ce0161a","","null","<img    src='G_4.jpg' height='90'> <img    src='G_8.jpg' height='90'> <img    src='G_5.jpg' height='90'> <img    src='G_2.jpg' height='90'> <img src='G_6.jpg' height='90'> <img src='G_3.jpg' height='90'> <img src='G_7.jpg' height='90'> <img src='G_1.jpg' height='90'>","null","Animation1",""
"","","","","","html-keyboard-response","103","355324","0.0-71.0","34","1","2025-01-25 16:33:04","af8d355d56820e421d246a7037deb6e6","66.128.195.228","Mozilla/5.0 (Windows NT 10.0; Win64; x64; rv:134.0) Gecko/20100101 Firefox/134.0","","Firefox","134.0","Windows","10.0","https://app.prolific.com/","en-US,en;q=0.5","6759f53758fb6b98b9dbf3e2","67949641171f97c04e14fb34","6795122cff23ef835ce0161a","","null","<img    src='G_4.jpg' height='90'> <img    src='G_8.jpg' height='90'> <img    src='G_5.jpg' height='90'> <img id='selected'    src='G_2.jpg' height='90'> <img src='G_6.jpg' height='90'> <img src='G_3.jpg' height='90'> <img src='G_7.jpg' height='90'> <img src='G_1.jpg' height='90'>","null","Animation1",""
"","","","","","html-keyboard-response","104","355842","0.0-72.0","34","1","2025-01-25 16:33:04","af8d355d56820e421d246a7037deb6e6","66.128.195.228","Mozilla/5.0 (Windows NT 10.0; Win64; x64; rv:134.0) Gecko/20100101 Firefox/134.0","","Firefox","134.0","Windows","10.0","https://app.prolific.com/","en-US,en;q=0.5","6759f53758fb6b98b9dbf3e2","67949641171f97c04e14fb34","6795122cff23ef835ce0161a","","null","<img    src='G_4.jpg' height='90'> <img    src='G_8.jpg' height='90'> <img    src='G_5.jpg' height='90'> <img id='selected'    src='G_2.jpg' height='90'> <img id='selected' src='G_6.jpg' height='90'> <img src='G_3.jpg' height='90'> <img src='G_7.jpg' height='90'> <img src='G_1.jpg' height='90'>","null","Animation1",""
"","","","","","html-keyboard-response","105","356362","0.0-73.0","34","1","2025-01-25 16:33:04","af8d355d56820e421d246a7037deb6e6","66.128.195.228","Mozilla/5.0 (Windows NT 10.0; Win64; x64; rv:134.0) Gecko/20100101 Firefox/134.0","","Firefox","134.0","Windows","10.0","https://app.prolific.com/","en-US,en;q=0.5","6759f53758fb6b98b9dbf3e2","67949641171f97c04e14fb34","6795122cff23ef835ce0161a","","null","<img    src='G_4.jpg' height='90'> <img    src='G_8.jpg' height='90'> <img    src='G_5.jpg' height='90'> <img id='swapped' src='G_6.jpg' height='90'> <img id='swapped'    src='G_2.jpg' height='90'> <img src='G_3.jpg' height='90'> <img src='G_7.jpg' height='90'> <img src='G_1.jpg' height='90'>","null","Animation1",""
"","","","","","html-keyboard-response","106","356676","0.0-74.0","34","1","2025-01-25 16:33:04","af8d355d56820e421d246a7037deb6e6","66.128.195.228","Mozilla/5.0 (Windows NT 10.0; Win64; x64; rv:134.0) Gecko/20100101 Firefox/134.0","","Firefox","134.0","Windows","10.0","https://app.prolific.com/","en-US,en;q=0.5","6759f53758fb6b98b9dbf3e2","67949641171f97c04e14fb34","6795122cff23ef835ce0161a","","null","<img    src='G_4.jpg' height='90'> <img    src='G_8.jpg' height='90'> <img    src='G_5.jpg' height='90'> <img  src='G_6.jpg' height='90'> <img     src='G_2.jpg' height='90'> <img src='G_3.jpg' height='90'> <img src='G_7.jpg' height='90'> <img src='G_1.jpg' height='90'>","null","Animation1",""
"","","","","","html-keyboard-response","107","357192","0.0-75.0","34","1","2025-01-25 16:33:04","af8d355d56820e421d246a7037deb6e6","66.128.195.228","Mozilla/5.0 (Windows NT 10.0; Win64; x64; rv:134.0) Gecko/20100101 Firefox/134.0","","Firefox","134.0","Windows","10.0","https://app.prolific.com/","en-US,en;q=0.5","6759f53758fb6b98b9dbf3e2","67949641171f97c04e14fb34","6795122cff23ef835ce0161a","","null","<img    src='G_4.jpg' height='90'> <img    src='G_8.jpg' height='90'> <img id='selected'    src='G_5.jpg' height='90'> <img  src='G_6.jpg' height='90'> <img     src='G_2.jpg' height='90'> <img src='G_3.jpg' height='90'> <img src='G_7.jpg' height='90'> <img src='G_1.jpg' height='90'>","null","Animation1",""
"","","","","","html-keyboard-response","108","357701","0.0-76.0","34","1","2025-01-25 16:33:04","af8d355d56820e421d246a7037deb6e6","66.128.195.228","Mozilla/5.0 (Windows NT 10.0; Win64; x64; rv:134.0) Gecko/20100101 Firefox/134.0","","Firefox","134.0","Windows","10.0","https://app.prolific.com/","en-US,en;q=0.5","6759f53758fb6b98b9dbf3e2","67949641171f97c04e14fb34","6795122cff23ef835ce0161a","","null","<img    src='G_4.jpg' height='90'> <img    src='G_8.jpg' height='90'> <img id='selected'    src='G_5.jpg' height='90'> <img id='selected'  src='G_6.jpg' height='90'> <img     src='G_2.jpg' height='90'> <img src='G_3.jpg' height='90'> <img src='G_7.jpg' height='90'> <img src='G_1.jpg' height='90'>","null","Animation1",""
"","","","","","html-keyboard-response","109","358220","0.0-77.0","34","1","2025-01-25 16:33:04","af8d355d56820e421d246a7037deb6e6","66.128.195.228","Mozilla/5.0 (Windows NT 10.0; Win64; x64; rv:134.0) Gecko/20100101 Firefox/134.0","","Firefox","134.0","Windows","10.0","https://app.prolific.com/","en-US,en;q=0.5","6759f53758fb6b98b9dbf3e2","67949641171f97c04e14fb34","6795122cff23ef835ce0161a","","null","<img    src='G_4.jpg' height='90'> <img    src='G_8.jpg' height='90'> <img id='swapped'  src='G_6.jpg' height='90'> <img id='swapped'    src='G_5.jpg' height='90'> <img     src='G_2.jpg' height='90'> <img src='G_3.jpg' height='90'> <img src='G_7.jpg' height='90'> <img src='G_1.jpg' height='90'>","null","Animation1",""
"","","","","","html-keyboard-response","110","358546","0.0-78.0","34","1","2025-01-25 16:33:04","af8d355d56820e421d246a7037deb6e6","66.128.195.228","Mozilla/5.0 (Windows NT 10.0; Win64; x64; rv:134.0) Gecko/20100101 Firefox/134.0","","Firefox","134.0","Windows","10.0","https://app.prolific.com/","en-US,en;q=0.5","6759f53758fb6b98b9dbf3e2","67949641171f97c04e14fb34","6795122cff23ef835ce0161a","","null","<img    src='G_4.jpg' height='90'> <img    src='G_8.jpg' height='90'> <img   src='G_6.jpg' height='90'> <img     src='G_5.jpg' height='90'> <img     src='G_2.jpg' height='90'> <img src='G_3.jpg' height='90'> <img src='G_7.jpg' height='90'> <img src='G_1.jpg' height='90'>","null","Animation1",""
"","","","","","html-keyboard-response","111","359060","0.0-79.0","34","1","2025-01-25 16:33:04","af8d355d56820e421d246a7037deb6e6","66.128.195.228","Mozilla/5.0 (Windows NT 10.0; Win64; x64; rv:134.0) Gecko/20100101 Firefox/134.0","","Firefox","134.0","Windows","10.0","https://app.prolific.com/","en-US,en;q=0.5","6759f53758fb6b98b9dbf3e2","67949641171f97c04e14fb34","6795122cff23ef835ce0161a","","null","<img    src='G_4.jpg' height='90'> <img id='selected'    src='G_8.jpg' height='90'> <img   src='G_6.jpg' height='90'> <img     src='G_5.jpg' height='90'> <img     src='G_2.jpg' height='90'> <img src='G_3.jpg' height='90'> <img src='G_7.jpg' height='90'> <img src='G_1.jpg' height='90'>","null","Animation1",""
"","","","","","html-keyboard-response","112","359571","0.0-80.0","34","1","2025-01-25 16:33:04","af8d355d56820e421d246a7037deb6e6","66.128.195.228","Mozilla/5.0 (Windows NT 10.0; Win64; x64; rv:134.0) Gecko/20100101 Firefox/134.0","","Firefox","134.0","Windows","10.0","https://app.prolific.com/","en-US,en;q=0.5","6759f53758fb6b98b9dbf3e2","67949641171f97c04e14fb34","6795122cff23ef835ce0161a","","null","<img    src='G_4.jpg' height='90'> <img id='selected'    src='G_8.jpg' height='90'> <img id='selected'   src='G_6.jpg' height='90'> <img     src='G_5.jpg' height='90'> <img     src='G_2.jpg' height='90'> <img src='G_3.jpg' height='90'> <img src='G_7.jpg' height='90'> <img src='G_1.jpg' height='90'>","null","Animation1",""
"","","","","","html-keyboard-response","113","360088","0.0-81.0","34","1","2025-01-25 16:33:04","af8d355d56820e421d246a7037deb6e6","66.128.195.228","Mozilla/5.0 (Windows NT 10.0; Win64; x64; rv:134.0) Gecko/20100101 Firefox/134.0","","Firefox","134.0","Windows","10.0","https://app.prolific.com/","en-US,en;q=0.5","6759f53758fb6b98b9dbf3e2","67949641171f97c04e14fb34","6795122cff23ef835ce0161a","","null","<img    src='G_4.jpg' height='90'> <img id='swapped'   src='G_6.jpg' height='90'> <img id='swapped'    src='G_8.jpg' height='90'> <img     src='G_5.jpg' height='90'> <img     src='G_2.jpg' height='90'> <img src='G_3.jpg' height='90'> <img src='G_7.jpg' height='90'> <img src='G_1.jpg' height='90'>","null","Animation1",""
"","","","","","html-keyboard-response","114","360404","0.0-82.0","34","1","2025-01-25 16:33:04","af8d355d56820e421d246a7037deb6e6","66.128.195.228","Mozilla/5.0 (Windows NT 10.0; Win64; x64; rv:134.0) Gecko/20100101 Firefox/134.0","","Firefox","134.0","Windows","10.0","https://app.prolific.com/","en-US,en;q=0.5","6759f53758fb6b98b9dbf3e2","67949641171f97c04e14fb34","6795122cff23ef835ce0161a","","null","<img    src='G_4.jpg' height='90'> <img    src='G_6.jpg' height='90'> <img     src='G_8.jpg' height='90'> <img     src='G_5.jpg' height='90'> <img     src='G_2.jpg' height='90'> <img src='G_3.jpg' height='90'> <img src='G_7.jpg' height='90'> <img src='G_1.jpg' height='90'>","null","Animation1",""
"","","","","","html-keyboard-response","115","360914","0.0-83.0","34","1","2025-01-25 16:33:04","af8d355d56820e421d246a7037deb6e6","66.128.195.228","Mozilla/5.0 (Windows NT 10.0; Win64; x64; rv:134.0) Gecko/20100101 Firefox/134.0","","Firefox","134.0","Windows","10.0","https://app.prolific.com/","en-US,en;q=0.5","6759f53758fb6b98b9dbf3e2","67949641171f97c04e14fb34","6795122cff23ef835ce0161a","","null","<img id='selected'    src='G_4.jpg' height='90'> <img    src='G_6.jpg' height='90'> <img     src='G_8.jpg' height='90'> <img     src='G_5.jpg' height='90'> <img     src='G_2.jpg' height='90'> <img src='G_3.jpg' height='90'> <img src='G_7.jpg' height='90'> <img src='G_1.jpg' height='90'>","null","Animation1",""
"","","","","","html-keyboard-response","116","361433","0.0-84.0","34","1","2025-01-25 16:33:04","af8d355d56820e421d246a7037deb6e6","66.128.195.228","Mozilla/5.0 (Windows NT 10.0; Win64; x64; rv:134.0) Gecko/20100101 Firefox/134.0","","Firefox","134.0","Windows","10.0","https://app.prolific.com/","en-US,en;q=0.5","6759f53758fb6b98b9dbf3e2","67949641171f97c04e14fb34","6795122cff23ef835ce0161a","","null","<img id='selected'    src='G_4.jpg' height='90'> <img id='selected'    src='G_6.jpg' height='90'> <img     src='G_8.jpg' height='90'> <img     src='G_5.jpg' height='90'> <img     src='G_2.jpg' height='90'> <img src='G_3.jpg' height='90'> <img src='G_7.jpg' height='90'> <img src='G_1.jpg' height='90'>","null","Animation1",""
"","","","","","html-keyboard-response","117","361943","0.0-85.0","34","1","2025-01-25 16:33:04","af8d355d56820e421d246a7037deb6e6","66.128.195.228","Mozilla/5.0 (Windows NT 10.0; Win64; x64; rv:134.0) Gecko/20100101 Firefox/134.0","","Firefox","134.0","Windows","10.0","https://app.prolific.com/","en-US,en;q=0.5","6759f53758fb6b98b9dbf3e2","67949641171f97c04e14fb34","6795122cff23ef835ce0161a","","null","<img id='selected'    src='G_4.jpg' height='90'> <img id='selected'    src='G_6.jpg' height='90'> <img     src='G_8.jpg' height='90'> <img     src='G_5.jpg' height='90'> <img     src='G_2.jpg' height='90'> <img src='G_3.jpg' height='90'> <img src='G_7.jpg' height='90'> <img src='G_1.jpg' height='90'>","null","Animation1",""
"","","","","","html-keyboard-response","118","362257","0.0-86.0","34","1","2025-01-25 16:33:04","af8d355d56820e421d246a7037deb6e6","66.128.195.228","Mozilla/5.0 (Windows NT 10.0; Win64; x64; rv:134.0) Gecko/20100101 Firefox/134.0","","Firefox","134.0","Windows","10.0","https://app.prolific.com/","en-US,en;q=0.5","6759f53758fb6b98b9dbf3e2","67949641171f97c04e14fb34","6795122cff23ef835ce0161a","","null","<img     src='G_4.jpg' height='90'> <img     src='G_6.jpg' height='90'> <img     src='G_8.jpg' height='90'> <img     src='G_5.jpg' height='90'> <img     src='G_2.jpg' height='90'> <img src='G_3.jpg' height='90'> <img src='G_7.jpg' height='90'> <img src='G_1.jpg' height='90'>","null","Animation1",""
"","","","","","html-keyboard-response","119","362774","0.0-87.0","34","1","2025-01-25 16:33:04","af8d355d56820e421d246a7037deb6e6","66.128.195.228","Mozilla/5.0 (Windows NT 10.0; Win64; x64; rv:134.0) Gecko/20100101 Firefox/134.0","","Firefox","134.0","Windows","10.0","https://app.prolific.com/","en-US,en;q=0.5","6759f53758fb6b98b9dbf3e2","67949641171f97c04e14fb34","6795122cff23ef835ce0161a","","null","<img     src='G_4.jpg' height='90'> <img     src='G_6.jpg' height='90'> <img     src='G_8.jpg' height='90'> <img     src='G_5.jpg' height='90'> <img id='selected'     src='G_2.jpg' height='90'> <img src='G_3.jpg' height='90'> <img src='G_7.jpg' height='90'> <img src='G_1.jpg' height='90'>","null","Animation1",""
"","","","","","html-keyboard-response","120","363283","0.0-88.0","34","1","2025-01-25 16:33:04","af8d355d56820e421d246a7037deb6e6","66.128.195.228","Mozilla/5.0 (Windows NT 10.0; Win64; x64; rv:134.0) Gecko/20100101 Firefox/134.0","","Firefox","134.0","Windows","10.0","https://app.prolific.com/","en-US,en;q=0.5","6759f53758fb6b98b9dbf3e2","67949641171f97c04e14fb34","6795122cff23ef835ce0161a","","null","<img     src='G_4.jpg' height='90'> <img     src='G_6.jpg' height='90'> <img     src='G_8.jpg' height='90'> <img     src='G_5.jpg' height='90'> <img id='selected'     src='G_2.jpg' height='90'> <img id='selected' src='G_3.jpg' height='90'> <img src='G_7.jpg' height='90'> <img src='G_1.jpg' height='90'>","null","Animation1",""
"","","","","","html-keyboard-response","121","363794","0.0-89.0","34","1","2025-01-25 16:33:04","af8d355d56820e421d246a7037deb6e6","66.128.195.228","Mozilla/5.0 (Windows NT 10.0; Win64; x64; rv:134.0) Gecko/20100101 Firefox/134.0","","Firefox","134.0","Windows","10.0","https://app.prolific.com/","en-US,en;q=0.5","6759f53758fb6b98b9dbf3e2","67949641171f97c04e14fb34","6795122cff23ef835ce0161a","","null","<img     src='G_4.jpg' height='90'> <img     src='G_6.jpg' height='90'> <img     src='G_8.jpg' height='90'> <img     src='G_5.jpg' height='90'> <img id='swapped' src='G_3.jpg' height='90'> <img id='swapped'     src='G_2.jpg' height='90'> <img src='G_7.jpg' height='90'> <img src='G_1.jpg' height='90'>","null","Animation1",""
"","","","","","html-keyboard-response","122","364117","0.0-90.0","34","1","2025-01-25 16:33:04","af8d355d56820e421d246a7037deb6e6","66.128.195.228","Mozilla/5.0 (Windows NT 10.0; Win64; x64; rv:134.0) Gecko/20100101 Firefox/134.0","","Firefox","134.0","Windows","10.0","https://app.prolific.com/","en-US,en;q=0.5","6759f53758fb6b98b9dbf3e2","67949641171f97c04e14fb34","6795122cff23ef835ce0161a","","null","<img     src='G_4.jpg' height='90'> <img     src='G_6.jpg' height='90'> <img     src='G_8.jpg' height='90'> <img     src='G_5.jpg' height='90'> <img  src='G_3.jpg' height='90'> <img      src='G_2.jpg' height='90'> <img src='G_7.jpg' height='90'> <img src='G_1.jpg' height='90'>","null","Animation1",""
"","","","","","html-keyboard-response","123","364622","0.0-91.0","34","1","2025-01-25 16:33:04","af8d355d56820e421d246a7037deb6e6","66.128.195.228","Mozilla/5.0 (Windows NT 10.0; Win64; x64; rv:134.0) Gecko/20100101 Firefox/134.0","","Firefox","134.0","Windows","10.0","https://app.prolific.com/","en-US,en;q=0.5","6759f53758fb6b98b9dbf3e2","67949641171f97c04e14fb34","6795122cff23ef835ce0161a","","null","<img     src='G_4.jpg' height='90'> <img     src='G_6.jpg' height='90'> <img     src='G_8.jpg' height='90'> <img id='selected'     src='G_5.jpg' height='90'> <img  src='G_3.jpg' height='90'> <img      src='G_2.jpg' height='90'> <img src='G_7.jpg' height='90'> <img src='G_1.jpg' height='90'>","null","Animation1",""
"","","","","","html-keyboard-response","124","365134","0.0-92.0","34","1","2025-01-25 16:33:04","af8d355d56820e421d246a7037deb6e6","66.128.195.228","Mozilla/5.0 (Windows NT 10.0; Win64; x64; rv:134.0) Gecko/20100101 Firefox/134.0","","Firefox","134.0","Windows","10.0","https://app.prolific.com/","en-US,en;q=0.5","6759f53758fb6b98b9dbf3e2","67949641171f97c04e14fb34","6795122cff23ef835ce0161a","","null","<img     src='G_4.jpg' height='90'> <img     src='G_6.jpg' height='90'> <img     src='G_8.jpg' height='90'> <img id='selected'     src='G_5.jpg' height='90'> <img id='selected'  src='G_3.jpg' height='90'> <img      src='G_2.jpg' height='90'> <img src='G_7.jpg' height='90'> <img src='G_1.jpg' height='90'>","null","Animation1",""
"","","","","","html-keyboard-response","125","365655","0.0-93.0","34","1","2025-01-25 16:33:04","af8d355d56820e421d246a7037deb6e6","66.128.195.228","Mozilla/5.0 (Windows NT 10.0; Win64; x64; rv:134.0) Gecko/20100101 Firefox/134.0","","Firefox","134.0","Windows","10.0","https://app.prolific.com/","en-US,en;q=0.5","6759f53758fb6b98b9dbf3e2","67949641171f97c04e14fb34","6795122cff23ef835ce0161a","","null","<img     src='G_4.jpg' height='90'> <img     src='G_6.jpg' height='90'> <img     src='G_8.jpg' height='90'> <img id='selected'     src='G_5.jpg' height='90'> <img id='selected'  src='G_3.jpg' height='90'> <img      src='G_2.jpg' height='90'> <img src='G_7.jpg' height='90'> <img src='G_1.jpg' height='90'>","null","Animation1",""
"","","","","","html-keyboard-response","126","365978","0.0-94.0","34","1","2025-01-25 16:33:04","af8d355d56820e421d246a7037deb6e6","66.128.195.228","Mozilla/5.0 (Windows NT 10.0; Win64; x64; rv:134.0) Gecko/20100101 Firefox/134.0","","Firefox","134.0","Windows","10.0","https://app.prolific.com/","en-US,en;q=0.5","6759f53758fb6b98b9dbf3e2","67949641171f97c04e14fb34","6795122cff23ef835ce0161a","","null","<img     src='G_4.jpg' height='90'> <img     src='G_6.jpg' height='90'> <img     src='G_8.jpg' height='90'> <img      src='G_5.jpg' height='90'> <img   src='G_3.jpg' height='90'> <img      src='G_2.jpg' height='90'> <img src='G_7.jpg' height='90'> <img src='G_1.jpg' height='90'>","null","Animation1",""
"","","","","","html-keyboard-response","127","366488","0.0-95.0","34","1","2025-01-25 16:33:04","af8d355d56820e421d246a7037deb6e6","66.128.195.228","Mozilla/5.0 (Windows NT 10.0; Win64; x64; rv:134.0) Gecko/20100101 Firefox/134.0","","Firefox","134.0","Windows","10.0","https://app.prolific.com/","en-US,en;q=0.5","6759f53758fb6b98b9dbf3e2","67949641171f97c04e14fb34","6795122cff23ef835ce0161a","","null","<img     src='G_4.jpg' height='90'> <img     src='G_6.jpg' height='90'> <img     src='G_8.jpg' height='90'> <img      src='G_5.jpg' height='90'> <img   src='G_3.jpg' height='90'> <img id='selected'      src='G_2.jpg' height='90'> <img src='G_7.jpg' height='90'> <img src='G_1.jpg' height='90'>","null","Animation1",""
"","","","","","html-keyboard-response","128","367002","0.0-96.0","34","1","2025-01-25 16:33:04","af8d355d56820e421d246a7037deb6e6","66.128.195.228","Mozilla/5.0 (Windows NT 10.0; Win64; x64; rv:134.0) Gecko/20100101 Firefox/134.0","","Firefox","134.0","Windows","10.0","https://app.prolific.com/","en-US,en;q=0.5","6759f53758fb6b98b9dbf3e2","67949641171f97c04e14fb34","6795122cff23ef835ce0161a","","null","<img     src='G_4.jpg' height='90'> <img     src='G_6.jpg' height='90'> <img     src='G_8.jpg' height='90'> <img      src='G_5.jpg' height='90'> <img   src='G_3.jpg' height='90'> <img id='selected'      src='G_2.jpg' height='90'> <img id='selected' src='G_7.jpg' height='90'> <img src='G_1.jpg' height='90'>","null","Animation1",""
"","","","","","html-keyboard-response","129","367521","0.0-97.0","34","1","2025-01-25 16:33:04","af8d355d56820e421d246a7037deb6e6","66.128.195.228","Mozilla/5.0 (Windows NT 10.0; Win64; x64; rv:134.0) Gecko/20100101 Firefox/134.0","","Firefox","134.0","Windows","10.0","https://app.prolific.com/","en-US,en;q=0.5","6759f53758fb6b98b9dbf3e2","67949641171f97c04e14fb34","6795122cff23ef835ce0161a","","null","<img     src='G_4.jpg' height='90'> <img     src='G_6.jpg' height='90'> <img     src='G_8.jpg' height='90'> <img      src='G_5.jpg' height='90'> <img   src='G_3.jpg' height='90'> <img id='selected'      src='G_2.jpg' height='90'> <img id='selected' src='G_7.jpg' height='90'> <img src='G_1.jpg' height='90'>","null","Animation1",""
"","","","","","html-keyboard-response","130","367838","0.0-98.0","34","1","2025-01-25 16:33:04","af8d355d56820e421d246a7037deb6e6","66.128.195.228","Mozilla/5.0 (Windows NT 10.0; Win64; x64; rv:134.0) Gecko/20100101 Firefox/134.0","","Firefox","134.0","Windows","10.0","https://app.prolific.com/","en-US,en;q=0.5","6759f53758fb6b98b9dbf3e2","67949641171f97c04e14fb34","6795122cff23ef835ce0161a","","null","<img     src='G_4.jpg' height='90'> <img     src='G_6.jpg' height='90'> <img     src='G_8.jpg' height='90'> <img      src='G_5.jpg' height='90'> <img   src='G_3.jpg' height='90'> <img       src='G_2.jpg' height='90'> <img  src='G_7.jpg' height='90'> <img src='G_1.jpg' height='90'>","null","Animation1",""
"","","","","","html-keyboard-response","131","368356","0.0-99.0","34","1","2025-01-25 16:33:04","af8d355d56820e421d246a7037deb6e6","66.128.195.228","Mozilla/5.0 (Windows NT 10.0; Win64; x64; rv:134.0) Gecko/20100101 Firefox/134.0","","Firefox","134.0","Windows","10.0","https://app.prolific.com/","en-US,en;q=0.5","6759f53758fb6b98b9dbf3e2","67949641171f97c04e14fb34","6795122cff23ef835ce0161a","","null","<img     src='G_4.jpg' height='90'> <img     src='G_6.jpg' height='90'> <img     src='G_8.jpg' height='90'> <img      src='G_5.jpg' height='90'> <img   src='G_3.jpg' height='90'> <img       src='G_2.jpg' height='90'> <img id='selected'  src='G_7.jpg' height='90'> <img src='G_1.jpg' height='90'>","null","Animation1",""
"","","","","","html-keyboard-response","132","368878","0.0-100.0","34","1","2025-01-25 16:33:04","af8d355d56820e421d246a7037deb6e6","66.128.195.228","Mozilla/5.0 (Windows NT 10.0; Win64; x64; rv:134.0) Gecko/20100101 Firefox/134.0","","Firefox","134.0","Windows","10.0","https://app.prolific.com/","en-US,en;q=0.5","6759f53758fb6b98b9dbf3e2","67949641171f97c04e14fb34","6795122cff23ef835ce0161a","","null","<img     src='G_4.jpg' height='90'> <img     src='G_6.jpg' height='90'> <img     src='G_8.jpg' height='90'> <img      src='G_5.jpg' height='90'> <img   src='G_3.jpg' height='90'> <img       src='G_2.jpg' height='90'> <img id='selected'  src='G_7.jpg' height='90'> <img id='selected' src='G_1.jpg' height='90'>","null","Animation1",""
"","","","","","html-keyboard-response","133","369397","0.0-101.0","34","1","2025-01-25 16:33:04","af8d355d56820e421d246a7037deb6e6","66.128.195.228","Mozilla/5.0 (Windows NT 10.0; Win64; x64; rv:134.0) Gecko/20100101 Firefox/134.0","","Firefox","134.0","Windows","10.0","https://app.prolific.com/","en-US,en;q=0.5","6759f53758fb6b98b9dbf3e2","67949641171f97c04e14fb34","6795122cff23ef835ce0161a","","null","<img     src='G_4.jpg' height='90'> <img     src='G_6.jpg' height='90'> <img     src='G_8.jpg' height='90'> <img      src='G_5.jpg' height='90'> <img   src='G_3.jpg' height='90'> <img       src='G_2.jpg' height='90'> <img id='swapped' src='G_1.jpg' height='90'> <img id='swapped'  src='G_7.jpg' height='90'>","null","Animation1",""
"","","","","","html-keyboard-response","134","369711","0.0-102.0","34","1","2025-01-25 16:33:04","af8d355d56820e421d246a7037deb6e6","66.128.195.228","Mozilla/5.0 (Windows NT 10.0; Win64; x64; rv:134.0) Gecko/20100101 Firefox/134.0","","Firefox","134.0","Windows","10.0","https://app.prolific.com/","en-US,en;q=0.5","6759f53758fb6b98b9dbf3e2","67949641171f97c04e14fb34","6795122cff23ef835ce0161a","","null","<img     src='G_4.jpg' height='90'> <img     src='G_6.jpg' height='90'> <img     src='G_8.jpg' height='90'> <img      src='G_5.jpg' height='90'> <img   src='G_3.jpg' height='90'> <img       src='G_2.jpg' height='90'> <img  src='G_1.jpg' height='90'> <img   src='G_7.jpg' height='90'>","null","Animation1",""
"","","","","","html-keyboard-response","135","370227","0.0-103.0","34","1","2025-01-25 16:33:04","af8d355d56820e421d246a7037deb6e6","66.128.195.228","Mozilla/5.0 (Windows NT 10.0; Win64; x64; rv:134.0) Gecko/20100101 Firefox/134.0","","Firefox","134.0","Windows","10.0","https://app.prolific.com/","en-US,en;q=0.5","6759f53758fb6b98b9dbf3e2","67949641171f97c04e14fb34","6795122cff23ef835ce0161a","","null","<img     src='G_4.jpg' height='90'> <img     src='G_6.jpg' height='90'> <img     src='G_8.jpg' height='90'> <img      src='G_5.jpg' height='90'> <img   src='G_3.jpg' height='90'> <img id='selected'       src='G_2.jpg' height='90'> <img  src='G_1.jpg' height='90'> <img   src='G_7.jpg' height='90'>","null","Animation1",""
"","","","","","html-keyboard-response","136","370745","0.0-104.0","34","1","2025-01-25 16:33:04","af8d355d56820e421d246a7037deb6e6","66.128.195.228","Mozilla/5.0 (Windows NT 10.0; Win64; x64; rv:134.0) Gecko/20100101 Firefox/134.0","","Firefox","134.0","Windows","10.0","https://app.prolific.com/","en-US,en;q=0.5","6759f53758fb6b98b9dbf3e2","67949641171f97c04e14fb34","6795122cff23ef835ce0161a","","null","<img     src='G_4.jpg' height='90'> <img     src='G_6.jpg' height='90'> <img     src='G_8.jpg' height='90'> <img      src='G_5.jpg' height='90'> <img   src='G_3.jpg' height='90'> <img id='selected'       src='G_2.jpg' height='90'> <img id='selected'  src='G_1.jpg' height='90'> <img   src='G_7.jpg' height='90'>","null","Animation1",""
"","","","","","html-keyboard-response","137","371255","0.0-105.0","34","1","2025-01-25 16:33:04","af8d355d56820e421d246a7037deb6e6","66.128.195.228","Mozilla/5.0 (Windows NT 10.0; Win64; x64; rv:134.0) Gecko/20100101 Firefox/134.0","","Firefox","134.0","Windows","10.0","https://app.prolific.com/","en-US,en;q=0.5","6759f53758fb6b98b9dbf3e2","67949641171f97c04e14fb34","6795122cff23ef835ce0161a","","null","<img     src='G_4.jpg' height='90'> <img     src='G_6.jpg' height='90'> <img     src='G_8.jpg' height='90'> <img      src='G_5.jpg' height='90'> <img   src='G_3.jpg' height='90'> <img id='selected'       src='G_2.jpg' height='90'> <img id='selected'  src='G_1.jpg' height='90'> <img   src='G_7.jpg' height='90'>","null","Animation1",""
"","","","","","html-keyboard-response","138","371571","0.0-106.0","34","1","2025-01-25 16:33:04","af8d355d56820e421d246a7037deb6e6","66.128.195.228","Mozilla/5.0 (Windows NT 10.0; Win64; x64; rv:134.0) Gecko/20100101 Firefox/134.0","","Firefox","134.0","Windows","10.0","https://app.prolific.com/","en-US,en;q=0.5","6759f53758fb6b98b9dbf3e2","67949641171f97c04e14fb34","6795122cff23ef835ce0161a","","null","<img     src='G_4.jpg' height='90'> <img     src='G_6.jpg' height='90'> <img     src='G_8.jpg' height='90'> <img      src='G_5.jpg' height='90'> <img   src='G_3.jpg' height='90'> <img        src='G_2.jpg' height='90'> <img   src='G_1.jpg' height='90'> <img   src='G_7.jpg' height='90'>","null","Animation1",""
"","","","","","html-keyboard-response","139","374642","0.0-107.0","34","1","2025-01-25 16:33:04","af8d355d56820e421d246a7037deb6e6","66.128.195.228","Mozilla/5.0 (Windows NT 10.0; Win64; x64; rv:134.0) Gecko/20100101 Firefox/134.0","","Firefox","134.0","Windows","10.0","https://app.prolific.com/","en-US,en;q=0.5","6759f53758fb6b98b9dbf3e2","67949641171f97c04e14fb34","6795122cff23ef835ce0161a","","3061","[""Did you notice any patterns? <br><br>Press Enter to watch that example again and follow the steps of Omgne Sort.""]","enter","",""
"","","","","","html-button-response","140","375050","0.0-108.0","34","1","2025-01-25 16:33:04","af8d355d56820e421d246a7037deb6e6","66.128.195.228","Mozilla/5.0 (Windows NT 10.0; Win64; x64; rv:134.0) Gecko/20100101 Firefox/134.0","","Firefox","134.0","Windows","10.0","https://app.prolific.com/","en-US,en;q=0.5","6759f53758fb6b98b9dbf3e2","67949641171f97c04e14fb34","6795122cff23ef835ce0161a","","null","<img id='selected' src='G_5.jpg' height='90'> <img src='G_2.jpg' height='90'> <img src='G_8.jpg' height='90'> <img src='G_4.jpg' height='90'> <img src='G_6.jpg' height='90'> <img src='G_3.jpg' height='90'> <img src='G_7.jpg' height='90'> <img src='G_1.jpg' height='90'>","null","Learning example 1",""
"","","","","","html-button-response","141","375364","0.0-109.0","34","1","2025-01-25 16:33:04","af8d355d56820e421d246a7037deb6e6","66.128.195.228","Mozilla/5.0 (Windows NT 10.0; Win64; x64; rv:134.0) Gecko/20100101 Firefox/134.0","","Firefox","134.0","Windows","10.0","https://app.prolific.com/","en-US,en;q=0.5","6759f53758fb6b98b9dbf3e2","67949641171f97c04e14fb34","6795122cff23ef835ce0161a","","null","<img id='selected' src='G_5.jpg' height='90'> <img id='selected' src='G_2.jpg' height='90'> <img src='G_8.jpg' height='90'> <img src='G_4.jpg' height='90'> <img src='G_6.jpg' height='90'> <img src='G_3.jpg' height='90'> <img src='G_7.jpg' height='90'> <img src='G_1.jpg' height='90'>","null","Learning example 1",""
"","","","","","html-button-response","142","375679","0.0-110.0","34","1","2025-01-25 16:33:04","af8d355d56820e421d246a7037deb6e6","66.128.195.228","Mozilla/5.0 (Windows NT 10.0; Win64; x64; rv:134.0) Gecko/20100101 Firefox/134.0","","Firefox","134.0","Windows","10.0","https://app.prolific.com/","en-US,en;q=0.5","6759f53758fb6b98b9dbf3e2","67949641171f97c04e14fb34","6795122cff23ef835ce0161a","","null","<img id='selected' src='G_5.jpg' height='90'> <img id='selected' src='G_2.jpg' height='90'> <img src='G_8.jpg' height='90'> <img src='G_4.jpg' height='90'> <img src='G_6.jpg' height='90'> <img src='G_3.jpg' height='90'> <img src='G_7.jpg' height='90'> <img src='G_1.jpg' height='90'>","null","Learning example 1",""
"","","","","","html-button-response","143","386406","0.0-111.0-0.0-0.0","34","1","2025-01-25 16:33:04","af8d355d56820e421d246a7037deb6e6","66.128.195.228","Mozilla/5.0 (Windows NT 10.0; Win64; x64; rv:134.0) Gecko/20100101 Firefox/134.0","","Firefox","134.0","Windows","10.0","https://app.prolific.com/","en-US,en;q=0.5","6759f53758fb6b98b9dbf3e2","67949641171f97c04e14fb34","6795122cff23ef835ce0161a","","10714","<img id='selected' src='G_5.jpg' height='90'> <img id='selected' src='G_2.jpg' height='90'> <img src='G_8.jpg' height='90'> <img src='G_4.jpg' height='90'> <img src='G_6.jpg' height='90'> <img src='G_3.jpg' height='90'> <img src='G_7.jpg' height='90'> <img src='G_1.jpg' height='90'>","0","Learning example 1",""
"","","","","","html-button-response","144","387077","0.0-111.1-0.1-0.1","34","1","2025-01-25 16:33:04","af8d355d56820e421d246a7037deb6e6","66.128.195.228","Mozilla/5.0 (Windows NT 10.0; Win64; x64; rv:134.0) Gecko/20100101 Firefox/134.0","","Firefox","134.0","Windows","10.0","https://app.prolific.com/","en-US,en;q=0.5","6759f53758fb6b98b9dbf3e2","67949641171f97c04e14fb34","6795122cff23ef835ce0161a","","666","<img id='selected' src='G_5.jpg' height='90'> <img id='selected' src='G_2.jpg' height='90'> <img src='G_8.jpg' height='90'> <img src='G_4.jpg' height='90'> <img src='G_6.jpg' height='90'> <img src='G_3.jpg' height='90'> <img src='G_7.jpg' height='90'> <img src='G_1.jpg' height='90'>","1","Learning example 1",""
"","","","","","html-button-response","145","387290","0.0-112.0","34","1","2025-01-25 16:33:04","af8d355d56820e421d246a7037deb6e6","66.128.195.228","Mozilla/5.0 (Windows NT 10.0; Win64; x64; rv:134.0) Gecko/20100101 Firefox/134.0","","Firefox","134.0","Windows","10.0","https://app.prolific.com/","en-US,en;q=0.5","6759f53758fb6b98b9dbf3e2","67949641171f97c04e14fb34","6795122cff23ef835ce0161a","","null","<img  src='G_5.jpg' height='90'> <img  src='G_2.jpg' height='90'> <img src='G_8.jpg' height='90'> <img src='G_4.jpg' height='90'> <img src='G_6.jpg' height='90'> <img src='G_3.jpg' height='90'> <img src='G_7.jpg' height='90'> <img src='G_1.jpg' height='90'>","null","Learning example 1",""
"","","","","","html-button-response","146","387713","0.0-113.0","34","1","2025-01-25 16:33:04","af8d355d56820e421d246a7037deb6e6","66.128.195.228","Mozilla/5.0 (Windows NT 10.0; Win64; x64; rv:134.0) Gecko/20100101 Firefox/134.0","","Firefox","134.0","Windows","10.0","https://app.prolific.com/","en-US,en;q=0.5","6759f53758fb6b98b9dbf3e2","67949641171f97c04e14fb34","6795122cff23ef835ce0161a","","null","<img  src='G_5.jpg' height='90'> <img id='selected'  src='G_2.jpg' height='90'> <img src='G_8.jpg' height='90'> <img src='G_4.jpg' height='90'> <img src='G_6.jpg' height='90'> <img src='G_3.jpg' height='90'> <img src='G_7.jpg' height='90'> <img src='G_1.jpg' height='90'>","null","Learning example 1",""
"","","","","","html-button-response","147","388040","0.0-114.0","34","1","2025-01-25 16:33:04","af8d355d56820e421d246a7037deb6e6","66.128.195.228","Mozilla/5.0 (Windows NT 10.0; Win64; x64; rv:134.0) Gecko/20100101 Firefox/134.0","","Firefox","134.0","Windows","10.0","https://app.prolific.com/","en-US,en;q=0.5","6759f53758fb6b98b9dbf3e2","67949641171f97c04e14fb34","6795122cff23ef835ce0161a","","null","<img  src='G_5.jpg' height='90'> <img id='selected'  src='G_2.jpg' height='90'> <img id='selected' src='G_8.jpg' height='90'> <img src='G_4.jpg' height='90'> <img src='G_6.jpg' height='90'> <img src='G_3.jpg' height='90'> <img src='G_7.jpg' height='90'> <img src='G_1.jpg' height='90'>","null","Learning example 1",""
"","","","","","html-button-response","148","388365","0.0-115.0","34","1","2025-01-25 16:33:04","af8d355d56820e421d246a7037deb6e6","66.128.195.228","Mozilla/5.0 (Windows NT 10.0; Win64; x64; rv:134.0) Gecko/20100101 Firefox/134.0","","Firefox","134.0","Windows","10.0","https://app.prolific.com/","en-US,en;q=0.5","6759f53758fb6b98b9dbf3e2","67949641171f97c04e14fb34","6795122cff23ef835ce0161a","","null","<img  src='G_5.jpg' height='90'> <img id='swapped' src='G_8.jpg' height='90'> <img id='swapped'  src='G_2.jpg' height='90'> <img src='G_4.jpg' height='90'> <img src='G_6.jpg' height='90'> <img src='G_3.jpg' height='90'> <img src='G_7.jpg' height='90'> <img src='G_1.jpg' height='90'>","null","Learning example 1",""
"","","","","","html-button-response","149","390847","0.0-116.0-0.0-0.0","34","1","2025-01-25 16:33:04","af8d355d56820e421d246a7037deb6e6","66.128.195.228","Mozilla/5.0 (Windows NT 10.0; Win64; x64; rv:134.0) Gecko/20100101 Firefox/134.0","","Firefox","134.0","Windows","10.0","https://app.prolific.com/","en-US,en;q=0.5","6759f53758fb6b98b9dbf3e2","67949641171f97c04e14fb34","6795122cff23ef835ce0161a","","2467","<img  src='G_5.jpg' height='90'> <img id='swapped' src='G_8.jpg' height='90'> <img id='swapped'  src='G_2.jpg' height='90'> <img src='G_4.jpg' height='90'> <img src='G_6.jpg' height='90'> <img src='G_3.jpg' height='90'> <img src='G_7.jpg' height='90'> <img src='G_1.jpg' height='90'>","2","Learning example 1",""
"","","","","","html-button-response","150","391462","0.0-116.1-0.1-0.1","34","1","2025-01-25 16:33:04","af8d355d56820e421d246a7037deb6e6","66.128.195.228","Mozilla/5.0 (Windows NT 10.0; Win64; x64; rv:134.0) Gecko/20100101 Firefox/134.0","","Firefox","134.0","Windows","10.0","https://app.prolific.com/","en-US,en;q=0.5","6759f53758fb6b98b9dbf3e2","67949641171f97c04e14fb34","6795122cff23ef835ce0161a","","611","<img  src='G_5.jpg' height='90'> <img id='swapped' src='G_8.jpg' height='90'> <img id='swapped'  src='G_2.jpg' height='90'> <img src='G_4.jpg' height='90'> <img src='G_6.jpg' height='90'> <img src='G_3.jpg' height='90'> <img src='G_7.jpg' height='90'> <img src='G_1.jpg' height='90'>","1","Learning example 1",""
"","","","","","html-button-response","151","391673","0.0-117.0","34","1","2025-01-25 16:33:04","af8d355d56820e421d246a7037deb6e6","66.128.195.228","Mozilla/5.0 (Windows NT 10.0; Win64; x64; rv:134.0) Gecko/20100101 Firefox/134.0","","Firefox","134.0","Windows","10.0","https://app.prolific.com/","en-US,en;q=0.5","6759f53758fb6b98b9dbf3e2","67949641171f97c04e14fb34","6795122cff23ef835ce0161a","","null","<img  src='G_5.jpg' height='90'> <img  src='G_8.jpg' height='90'> <img   src='G_2.jpg' height='90'> <img src='G_4.jpg' height='90'> <img src='G_6.jpg' height='90'> <img src='G_3.jpg' height='90'> <img src='G_7.jpg' height='90'> <img src='G_1.jpg' height='90'>","null","Learning example 1",""
"","","","","","html-button-response","152","392089","0.0-118.0","34","1","2025-01-25 16:33:04","af8d355d56820e421d246a7037deb6e6","66.128.195.228","Mozilla/5.0 (Windows NT 10.0; Win64; x64; rv:134.0) Gecko/20100101 Firefox/134.0","","Firefox","134.0","Windows","10.0","https://app.prolific.com/","en-US,en;q=0.5","6759f53758fb6b98b9dbf3e2","67949641171f97c04e14fb34","6795122cff23ef835ce0161a","","null","<img id='selected'  src='G_5.jpg' height='90'> <img  src='G_8.jpg' height='90'> <img   src='G_2.jpg' height='90'> <img src='G_4.jpg' height='90'> <img src='G_6.jpg' height='90'> <img src='G_3.jpg' height='90'> <img src='G_7.jpg' height='90'> <img src='G_1.jpg' height='90'>","null","Learning example 1",""
"","","","","","html-button-response","153","392413","0.0-119.0","34","1","2025-01-25 16:33:04","af8d355d56820e421d246a7037deb6e6","66.128.195.228","Mozilla/5.0 (Windows NT 10.0; Win64; x64; rv:134.0) Gecko/20100101 Firefox/134.0","","Firefox","134.0","Windows","10.0","https://app.prolific.com/","en-US,en;q=0.5","6759f53758fb6b98b9dbf3e2","67949641171f97c04e14fb34","6795122cff23ef835ce0161a","","null","<img id='selected'  src='G_5.jpg' height='90'> <img id='selected'  src='G_8.jpg' height='90'> <img   src='G_2.jpg' height='90'> <img src='G_4.jpg' height='90'> <img src='G_6.jpg' height='90'> <img src='G_3.jpg' height='90'> <img src='G_7.jpg' height='90'> <img src='G_1.jpg' height='90'>","null","Learning example 1",""
"","","","","","html-button-response","154","392734","0.0-120.0","34","1","2025-01-25 16:33:04","af8d355d56820e421d246a7037deb6e6","66.128.195.228","Mozilla/5.0 (Windows NT 10.0; Win64; x64; rv:134.0) Gecko/20100101 Firefox/134.0","","Firefox","134.0","Windows","10.0","https://app.prolific.com/","en-US,en;q=0.5","6759f53758fb6b98b9dbf3e2","67949641171f97c04e14fb34","6795122cff23ef835ce0161a","","null","<img id='swapped'  src='G_8.jpg' height='90'> <img id='swapped'  src='G_5.jpg' height='90'> <img   src='G_2.jpg' height='90'> <img src='G_4.jpg' height='90'> <img src='G_6.jpg' height='90'> <img src='G_3.jpg' height='90'> <img src='G_7.jpg' height='90'> <img src='G_1.jpg' height='90'>","null","Learning example 1",""
"","","","","","html-button-response","155","394494","0.0-121.0-0.0-0.0","34","1","2025-01-25 16:33:04","af8d355d56820e421d246a7037deb6e6","66.128.195.228","Mozilla/5.0 (Windows NT 10.0; Win64; x64; rv:134.0) Gecko/20100101 Firefox/134.0","","Firefox","134.0","Windows","10.0","https://app.prolific.com/","en-US,en;q=0.5","6759f53758fb6b98b9dbf3e2","67949641171f97c04e14fb34","6795122cff23ef835ce0161a","","1741","<img id='swapped'  src='G_8.jpg' height='90'> <img id='swapped'  src='G_5.jpg' height='90'> <img   src='G_2.jpg' height='90'> <img src='G_4.jpg' height='90'> <img src='G_6.jpg' height='90'> <img src='G_3.jpg' height='90'> <img src='G_7.jpg' height='90'> <img src='G_1.jpg' height='90'>","0","Learning example 1",""
"","","","","","html-button-response","156","395071","0.0-121.1-0.1-0.1","34","1","2025-01-25 16:33:04","af8d355d56820e421d246a7037deb6e6","66.128.195.228","Mozilla/5.0 (Windows NT 10.0; Win64; x64; rv:134.0) Gecko/20100101 Firefox/134.0","","Firefox","134.0","Windows","10.0","https://app.prolific.com/","en-US,en;q=0.5","6759f53758fb6b98b9dbf3e2","67949641171f97c04e14fb34","6795122cff23ef835ce0161a","","571","<img id='swapped'  src='G_8.jpg' height='90'> <img id='swapped'  src='G_5.jpg' height='90'> <img   src='G_2.jpg' height='90'> <img src='G_4.jpg' height='90'> <img src='G_6.jpg' height='90'> <img src='G_3.jpg' height='90'> <img src='G_7.jpg' height='90'> <img src='G_1.jpg' height='90'>","1","Learning example 1",""
"","","","","","html-button-response","157","395283","0.0-122.0","34","1","2025-01-25 16:33:04","af8d355d56820e421d246a7037deb6e6","66.128.195.228","Mozilla/5.0 (Windows NT 10.0; Win64; x64; rv:134.0) Gecko/20100101 Firefox/134.0","","Firefox","134.0","Windows","10.0","https://app.prolific.com/","en-US,en;q=0.5","6759f53758fb6b98b9dbf3e2","67949641171f97c04e14fb34","6795122cff23ef835ce0161a","","null","<img   src='G_8.jpg' height='90'> <img   src='G_5.jpg' height='90'> <img   src='G_2.jpg' height='90'> <img src='G_4.jpg' height='90'> <img src='G_6.jpg' height='90'> <img src='G_3.jpg' height='90'> <img src='G_7.jpg' height='90'> <img src='G_1.jpg' height='90'>","null","Learning example 1",""
