"success","timeout","failed_images","failed_audio","failed_video","trial_type","trial_index","time_elapsed","internal_node_id","run_id","condition","recorded_at","source_code_version","ip","user_agent","device","browser","browser_version","platform","platform_version","referer","accept_language","PROLIFIC_PID","STUDY_ID","SESSION_ID","view_history","rt","stimulus","response","phase","question_order"
"true","false","[]","[]","[]","preload","0","773","0.0-0.0","35","1","2025-01-25 16:34:28","af8d355d56820e421d246a7037deb6e6","69.14.97.166","Mozilla/5.0 (Windows NT 10.0; Win64; x64) AppleWebKit/537.36 (KHTML, like Gecko) Chrome/131.0.0.0 Safari/537.36","WebKit","Chrome","131.0.0.0","Windows","10.0","https://app.prolific.com/","en-US,en;q=0.9","65610d3b7a06953204bbbb62","67949641171f97c04e14fb34","67951289add3d4ce287a6368","","","","","",""
"","","","","","instructions","1","8289","0.0-1.0","35","1","2025-01-25 16:34:28","af8d355d56820e421d246a7037deb6e6","69.14.97.166","Mozilla/5.0 (Windows NT 10.0; Win64; x64) AppleWebKit/537.36 (KHTML, like Gecko) Chrome/131.0.0.0 Safari/537.36","WebKit","Chrome","131.0.0.0","Windows","10.0","https://app.prolific.com/","en-US,en;q=0.9","65610d3b7a06953204bbbb62","67949641171f97c04e14fb34","67951289add3d4ce287a6368","[{""page_index"":0,""viewing_time"":7511}]","7511","","","",""
"","","","","","html-keyboard-response","2","8793","0.0-2.0","35","1","2025-01-25 16:34:28","af8d355d56820e421d246a7037deb6e6","69.14.97.166","Mozilla/5.0 (Windows NT 10.0; Win64; x64) AppleWebKit/537.36 (KHTML, like Gecko) Chrome/131.0.0.0 Safari/537.36","WebKit","Chrome","131.0.0.0","Windows","10.0","https://app.prolific.com/","en-US,en;q=0.9","65610d3b7a06953204bbbb62","67949641171f97c04e14fb34","67951289add3d4ce287a6368","","null","<p> + <p/>","null","",""
"","","","","","instructions","3","162533","0.0-3.0","35","1","2025-01-25 16:34:28","af8d355d56820e421d246a7037deb6e6","69.14.97.166","Mozilla/5.0 (Windows NT 10.0; Win64; x64) AppleWebKit/537.36 (KHTML, like Gecko) Chrome/131.0.0.0 Safari/537.36","WebKit","Chrome","131.0.0.0","Windows","10.0","https://app.prolific.com/","en-US,en;q=0.9","65610d3b7a06953204bbbb62","67949641171f97c04e14fb34","67951289add3d4ce287a6368","[{""page_index"":0,""viewing_time"":2010},{""page_index"":1,""viewing_time"":72457},{""page_index"":2,""viewing_time"":32512},{""page_index"":3,""viewing_time"":4198},{""page_index"":4,""viewing_time"":42561}]","153738","","","",""
"","","","","","html-button-response","4","165452","0.0-4.0-0.0-0.0","35","1","2025-01-25 16:34:28","af8d355d56820e421d246a7037deb6e6","69.14.97.166","Mozilla/5.0 (Windows NT 10.0; Win64; x64) AppleWebKit/537.36 (KHTML, like Gecko) Chrome/131.0.0.0 Safari/537.36","WebKit","Chrome","131.0.0.0","Windows","10.0","https://app.prolific.com/","en-US,en;q=0.9","65610d3b7a06953204bbbb62","67949641171f97c04e14fb34","67951289add3d4ce287a6368","","2914","","0","Intro Trial",""
"","","","","","html-button-response","5","165927","0.0-4.1-0.1-0.1","35","1","2025-01-25 16:34:28","af8d355d56820e421d246a7037deb6e6","69.14.97.166","Mozilla/5.0 (Windows NT 10.0; Win64; x64) AppleWebKit/537.36 (KHTML, like Gecko) Chrome/131.0.0.0 Safari/537.36","WebKit","Chrome","131.0.0.0","Windows","10.0","https://app.prolific.com/","en-US,en;q=0.9","65610d3b7a06953204bbbb62","67949641171f97c04e14fb34","67951289add3d4ce287a6368","","471","","1","Intro Trial",""
"","","","","","html-button-response","6","210370","0.0-4.2-0.2-0.2","35","1","2025-01-25 16:34:28","af8d355d56820e421d246a7037deb6e6","69.14.97.166","Mozilla/5.0 (Windows NT 10.0; Win64; x64) AppleWebKit/537.36 (KHTML, like Gecko) Chrome/131.0.0.0 Safari/537.36","WebKit","Chrome","131.0.0.0","Windows","10.0","https://app.prolific.com/","en-US,en;q=0.9","65610d3b7a06953204bbbb62","67949641171f97c04e14fb34","67951289add3d4ce287a6368","","44440","","1","Intro Trial",""
"","","","","","html-button-response","7","210799","0.0-4.3-0.3-0.3","35","1","2025-01-25 16:34:28","af8d355d56820e421d246a7037deb6e6","69.14.97.166","Mozilla/5.0 (Windows NT 10.0; Win64; x64) AppleWebKit/537.36 (KHTML, like Gecko) Chrome/131.0.0.0 Safari/537.36","WebKit","Chrome","131.0.0.0","Windows","10.0","https://app.prolific.com/","en-US,en;q=0.9","65610d3b7a06953204bbbb62","67949641171f97c04e14fb34","67951289add3d4ce287a6368","","425","","2","Intro Trial",""
"","","","","","html-button-response","8","212050","0.0-4.4-0.4-0.4","35","1","2025-01-25 16:34:28","af8d355d56820e421d246a7037deb6e6","69.14.97.166","Mozilla/5.0 (Windows NT 10.0; Win64; x64) AppleWebKit/537.36 (KHTML, like Gecko) Chrome/131.0.0.0 Safari/537.36","WebKit","Chrome","131.0.0.0","Windows","10.0","https://app.prolific.com/","en-US,en;q=0.9","65610d3b7a06953204bbbb62","67949641171f97c04e14fb34","67951289add3d4ce287a6368","","1247","","2","Intro Trial",""
"","","","","","html-button-response","9","212799","0.0-4.5-0.5-0.5","35","1","2025-01-25 16:34:28","af8d355d56820e421d246a7037deb6e6","69.14.97.166","Mozilla/5.0 (Windows NT 10.0; Win64; x64) AppleWebKit/537.36 (KHTML, like Gecko) Chrome/131.0.0.0 Safari/537.36","WebKit","Chrome","131.0.0.0","Windows","10.0","https://app.prolific.com/","en-US,en;q=0.9","65610d3b7a06953204bbbb62","67949641171f97c04e14fb34","67951289add3d4ce287a6368","","746","","3","Intro Trial",""
"","","","","","html-button-response","10","213897","0.0-4.6-0.6-0.6","35","1","2025-01-25 16:34:28","af8d355d56820e421d246a7037deb6e6","69.14.97.166","Mozilla/5.0 (Windows NT 10.0; Win64; x64) AppleWebKit/537.36 (KHTML, like Gecko) Chrome/131.0.0.0 Safari/537.36","WebKit","Chrome","131.0.0.0","Windows","10.0","https://app.prolific.com/","en-US,en;q=0.9","65610d3b7a06953204bbbb62","67949641171f97c04e14fb34","67951289add3d4ce287a6368","","1095","","3","Intro Trial",""
"","","","","","html-button-response","11","214567","0.0-4.7-0.7-0.7","35","1","2025-01-25 16:34:28","af8d355d56820e421d246a7037deb6e6","69.14.97.166","Mozilla/5.0 (Windows NT 10.0; Win64; x64) AppleWebKit/537.36 (KHTML, like Gecko) Chrome/131.0.0.0 Safari/537.36","WebKit","Chrome","131.0.0.0","Windows","10.0","https://app.prolific.com/","en-US,en;q=0.9","65610d3b7a06953204bbbb62","67949641171f97c04e14fb34","67951289add3d4ce287a6368","","665","","1","Intro Trial",""
"","","","","","html-button-response","12","216578","0.0-4.8-0.8-0.8","35","1","2025-01-25 16:34:28","af8d355d56820e421d246a7037deb6e6","69.14.97.166","Mozilla/5.0 (Windows NT 10.0; Win64; x64) AppleWebKit/537.36 (KHTML, like Gecko) Chrome/131.0.0.0 Safari/537.36","WebKit","Chrome","131.0.0.0","Windows","10.0","https://app.prolific.com/","en-US,en;q=0.9","65610d3b7a06953204bbbb62","67949641171f97c04e14fb34","67951289add3d4ce287a6368","","2008","","0","Intro Trial",""
"","","","","","html-button-response","13","218441","0.0-4.9-0.9-0.9","35","1","2025-01-25 16:34:28","af8d355d56820e421d246a7037deb6e6","69.14.97.166","Mozilla/5.0 (Windows NT 10.0; Win64; x64) AppleWebKit/537.36 (KHTML, like Gecko) Chrome/131.0.0.0 Safari/537.36","WebKit","Chrome","131.0.0.0","Windows","10.0","https://app.prolific.com/","en-US,en;q=0.9","65610d3b7a06953204bbbb62","67949641171f97c04e14fb34","67951289add3d4ce287a6368","","1860","","4","Intro Trial",""
"","","","","","html-button-response","14","220737","0.0-4.10-0.10-0.10","35","1","2025-01-25 16:34:28","af8d355d56820e421d246a7037deb6e6","69.14.97.166","Mozilla/5.0 (Windows NT 10.0; Win64; x64) AppleWebKit/537.36 (KHTML, like Gecko) Chrome/131.0.0.0 Safari/537.36","WebKit","Chrome","131.0.0.0","Windows","10.0","https://app.prolific.com/","en-US,en;q=0.9","65610d3b7a06953204bbbb62","67949641171f97c04e14fb34","67951289add3d4ce287a6368","","2293","","4","Intro Trial",""
"","","","","","html-button-response","15","221495","0.0-4.11-0.11-0.11","35","1","2025-01-25 16:34:28","af8d355d56820e421d246a7037deb6e6","69.14.97.166","Mozilla/5.0 (Windows NT 10.0; Win64; x64) AppleWebKit/537.36 (KHTML, like Gecko) Chrome/131.0.0.0 Safari/537.36","WebKit","Chrome","131.0.0.0","Windows","10.0","https://app.prolific.com/","en-US,en;q=0.9","65610d3b7a06953204bbbb62","67949641171f97c04e14fb34","67951289add3d4ce287a6368","","754","","1","Intro Trial",""
"","","","","","html-button-response","16","224325","0.0-4.12-0.12-0.12","35","1","2025-01-25 16:34:28","af8d355d56820e421d246a7037deb6e6","69.14.97.166","Mozilla/5.0 (Windows NT 10.0; Win64; x64) AppleWebKit/537.36 (KHTML, like Gecko) Chrome/131.0.0.0 Safari/537.36","WebKit","Chrome","131.0.0.0","Windows","10.0","https://app.prolific.com/","en-US,en;q=0.9","65610d3b7a06953204bbbb62","67949641171f97c04e14fb34","67951289add3d4ce287a6368","","2827","","1","Intro Trial",""
"","","","","","html-button-response","17","224783","0.0-4.13-0.13-0.13","35","1","2025-01-25 16:34:28","af8d355d56820e421d246a7037deb6e6","69.14.97.166","Mozilla/5.0 (Windows NT 10.0; Win64; x64) AppleWebKit/537.36 (KHTML, like Gecko) Chrome/131.0.0.0 Safari/537.36","WebKit","Chrome","131.0.0.0","Windows","10.0","https://app.prolific.com/","en-US,en;q=0.9","65610d3b7a06953204bbbb62","67949641171f97c04e14fb34","67951289add3d4ce287a6368","","454","","2","Intro Trial",""
"","","","","","html-button-response","18","226066","0.0-4.14-0.14-0.14","35","1","2025-01-25 16:34:28","af8d355d56820e421d246a7037deb6e6","69.14.97.166","Mozilla/5.0 (Windows NT 10.0; Win64; x64) AppleWebKit/537.36 (KHTML, like Gecko) Chrome/131.0.0.0 Safari/537.36","WebKit","Chrome","131.0.0.0","Windows","10.0","https://app.prolific.com/","en-US,en;q=0.9","65610d3b7a06953204bbbb62","67949641171f97c04e14fb34","67951289add3d4ce287a6368","","1279","","1","Intro Trial",""
"","","","","","html-button-response","19","226662","0.0-4.15-0.15-0.15","35","1","2025-01-25 16:34:28","af8d355d56820e421d246a7037deb6e6","69.14.97.166","Mozilla/5.0 (Windows NT 10.0; Win64; x64) AppleWebKit/537.36 (KHTML, like Gecko) Chrome/131.0.0.0 Safari/537.36","WebKit","Chrome","131.0.0.0","Windows","10.0","https://app.prolific.com/","en-US,en;q=0.9","65610d3b7a06953204bbbb62","67949641171f97c04e14fb34","67951289add3d4ce287a6368","","592","","3","Intro Trial",""
"","","","","","html-button-response","20","227825","0.0-4.16-0.16-0.16","35","1","2025-01-25 16:34:28","af8d355d56820e421d246a7037deb6e6","69.14.97.166","Mozilla/5.0 (Windows NT 10.0; Win64; x64) AppleWebKit/537.36 (KHTML, like Gecko) Chrome/131.0.0.0 Safari/537.36","WebKit","Chrome","131.0.0.0","Windows","10.0","https://app.prolific.com/","en-US,en;q=0.9","65610d3b7a06953204bbbb62","67949641171f97c04e14fb34","67951289add3d4ce287a6368","","1159","","1","Intro Trial",""
"","","","","","html-button-response","21","228638","0.0-4.17-0.17-0.17","35","1","2025-01-25 16:34:28","af8d355d56820e421d246a7037deb6e6","69.14.97.166","Mozilla/5.0 (Windows NT 10.0; Win64; x64) AppleWebKit/537.36 (KHTML, like Gecko) Chrome/131.0.0.0 Safari/537.36","WebKit","Chrome","131.0.0.0","Windows","10.0","https://app.prolific.com/","en-US,en;q=0.9","65610d3b7a06953204bbbb62","67949641171f97c04e14fb34","67951289add3d4ce287a6368","","807","","4","Intro Trial",""
"","","","","","html-button-response","22","229775","0.0-4.18-0.18-0.18","35","1","2025-01-25 16:34:28","af8d355d56820e421d246a7037deb6e6","69.14.97.166","Mozilla/5.0 (Windows NT 10.0; Win64; x64) AppleWebKit/537.36 (KHTML, like Gecko) Chrome/131.0.0.0 Safari/537.36","WebKit","Chrome","131.0.0.0","Windows","10.0","https://app.prolific.com/","en-US,en;q=0.9","65610d3b7a06953204bbbb62","67949641171f97c04e14fb34","67951289add3d4ce287a6368","","1133","","2","Intro Trial",""
"","","","","","html-button-response","23","230311","0.0-4.19-0.19-0.19","35","1","2025-01-25 16:34:28","af8d355d56820e421d246a7037deb6e6","69.14.97.166","Mozilla/5.0 (Windows NT 10.0; Win64; x64) AppleWebKit/537.36 (KHTML, like Gecko) Chrome/131.0.0.0 Safari/537.36","WebKit","Chrome","131.0.0.0","Windows","10.0","https://app.prolific.com/","en-US,en;q=0.9","65610d3b7a06953204bbbb62","67949641171f97c04e14fb34","67951289add3d4ce287a6368","","532","","3","Intro Trial",""
"","","","","","html-button-response","24","231001","0.0-4.20-0.20-0.20","35","1","2025-01-25 16:34:28","af8d355d56820e421d246a7037deb6e6","69.14.97.166","Mozilla/5.0 (Windows NT 10.0; Win64; x64) AppleWebKit/537.36 (KHTML, like Gecko) Chrome/131.0.0.0 Safari/537.36","WebKit","Chrome","131.0.0.0","Windows","10.0","https://app.prolific.com/","en-US,en;q=0.9","65610d3b7a06953204bbbb62","67949641171f97c04e14fb34","67951289add3d4ce287a6368","","686","","2","Intro Trial",""
"","","","","","html-button-response","25","231807","0.0-4.21-0.21-0.21","35","1","2025-01-25 16:34:28","af8d355d56820e421d246a7037deb6e6","69.14.97.166","Mozilla/5.0 (Windows NT 10.0; Win64; x64) AppleWebKit/537.36 (KHTML, like Gecko) Chrome/131.0.0.0 Safari/537.36","WebKit","Chrome","131.0.0.0","Windows","10.0","https://app.prolific.com/","en-US,en;q=0.9","65610d3b7a06953204bbbb62","67949641171f97c04e14fb34","67951289add3d4ce287a6368","","802","","4","Intro Trial",""
"","","","","","html-button-response","26","233182","0.0-4.22-0.22-0.22","35","1","2025-01-25 16:34:28","af8d355d56820e421d246a7037deb6e6","69.14.97.166","Mozilla/5.0 (Windows NT 10.0; Win64; x64) AppleWebKit/537.36 (KHTML, like Gecko) Chrome/131.0.0.0 Safari/537.36","WebKit","Chrome","131.0.0.0","Windows","10.0","https://app.prolific.com/","en-US,en;q=0.9","65610d3b7a06953204bbbb62","67949641171f97c04e14fb34","67951289add3d4ce287a6368","","1370","","2","Intro Trial",""
"","","","","","html-button-response","27","233654","0.0-4.23-0.23-0.23","35","1","2025-01-25 16:34:28","af8d355d56820e421d246a7037deb6e6","69.14.97.166","Mozilla/5.0 (Windows NT 10.0; Win64; x64) AppleWebKit/537.36 (KHTML, like Gecko) Chrome/131.0.0.0 Safari/537.36","WebKit","Chrome","131.0.0.0","Windows","10.0","https://app.prolific.com/","en-US,en;q=0.9","65610d3b7a06953204bbbb62","67949641171f97c04e14fb34","67951289add3d4ce287a6368","","468","","3","Intro Trial",""
"","","","","","html-button-response","28","234621","0.0-4.24-0.24-0.24","35","1","2025-01-25 16:34:28","af8d355d56820e421d246a7037deb6e6","69.14.97.166","Mozilla/5.0 (Windows NT 10.0; Win64; x64) AppleWebKit/537.36 (KHTML, like Gecko) Chrome/131.0.0.0 Safari/537.36","WebKit","Chrome","131.0.0.0","Windows","10.0","https://app.prolific.com/","en-US,en;q=0.9","65610d3b7a06953204bbbb62","67949641171f97c04e14fb34","67951289add3d4ce287a6368","","962","","2","Intro Trial",""
"","","","","","html-button-response","29","235211","0.0-4.25-0.25-0.25","35","1","2025-01-25 16:34:28","af8d355d56820e421d246a7037deb6e6","69.14.97.166","Mozilla/5.0 (Windows NT 10.0; Win64; x64) AppleWebKit/537.36 (KHTML, like Gecko) Chrome/131.0.0.0 Safari/537.36","WebKit","Chrome","131.0.0.0","Windows","10.0","https://app.prolific.com/","en-US,en;q=0.9","65610d3b7a06953204bbbb62","67949641171f97c04e14fb34","67951289add3d4ce287a6368","","584","","4","Intro Trial",""
"","","","","","html-button-response","30","235813","0.0-4.26-0.26-0.26","35","1","2025-01-25 16:34:28","af8d355d56820e421d246a7037deb6e6","69.14.97.166","Mozilla/5.0 (Windows NT 10.0; Win64; x64) AppleWebKit/537.36 (KHTML, like Gecko) Chrome/131.0.0.0 Safari/537.36","WebKit","Chrome","131.0.0.0","Windows","10.0","https://app.prolific.com/","en-US,en;q=0.9","65610d3b7a06953204bbbb62","67949641171f97c04e14fb34","67951289add3d4ce287a6368","","597","","3","Intro Trial",""
"","","","","","html-button-response","31","236271","0.0-4.27-0.27-0.27","35","1","2025-01-25 16:34:28","af8d355d56820e421d246a7037deb6e6","69.14.97.166","Mozilla/5.0 (Windows NT 10.0; Win64; x64) AppleWebKit/537.36 (KHTML, like Gecko) Chrome/131.0.0.0 Safari/537.36","WebKit","Chrome","131.0.0.0","Windows","10.0","https://app.prolific.com/","en-US,en;q=0.9","65610d3b7a06953204bbbb62","67949641171f97c04e14fb34","67951289add3d4ce287a6368","","452","","4","Intro Trial",""
"","","","","","html-button-response","32","237810","0.0-4.28-0.28-0.28","35","1","2025-01-25 16:34:28","af8d355d56820e421d246a7037deb6e6","69.14.97.166","Mozilla/5.0 (Windows NT 10.0; Win64; x64) AppleWebKit/537.36 (KHTML, like Gecko) Chrome/131.0.0.0 Safari/537.36","WebKit","Chrome","131.0.0.0","Windows","10.0","https://app.prolific.com/","en-US,en;q=0.9","65610d3b7a06953204bbbb62","67949641171f97c04e14fb34","67951289add3d4ce287a6368","","1532","","4","Intro Trial",""
"","","","","","html-button-response","33","238670","0.0-4.29-0.29-0.29","35","1","2025-01-25 16:34:28","af8d355d56820e421d246a7037deb6e6","69.14.97.166","Mozilla/5.0 (Windows NT 10.0; Win64; x64) AppleWebKit/537.36 (KHTML, like Gecko) Chrome/131.0.0.0 Safari/537.36","WebKit","Chrome","131.0.0.0","Windows","10.0","https://app.prolific.com/","en-US,en;q=0.9","65610d3b7a06953204bbbb62","67949641171f97c04e14fb34","67951289add3d4ce287a6368","","854","","0","Intro Trial",""
"","","","","","html-button-response","34","246426","0.0-4.30-0.30-0.30","35","1","2025-01-25 16:34:28","af8d355d56820e421d246a7037deb6e6","69.14.97.166","Mozilla/5.0 (Windows NT 10.0; Win64; x64) AppleWebKit/537.36 (KHTML, like Gecko) Chrome/131.0.0.0 Safari/537.36","WebKit","Chrome","131.0.0.0","Windows","10.0","https://app.prolific.com/","en-US,en;q=0.9","65610d3b7a06953204bbbb62","67949641171f97c04e14fb34","67951289add3d4ce287a6368","","7750","","5","Intro Trial",""
"","","","","","html-keyboard-response","35","263246","0.0-5.0","35","1","2025-01-25 16:34:28","af8d355d56820e421d246a7037deb6e6","69.14.97.166","Mozilla/5.0 (Windows NT 10.0; Win64; x64) AppleWebKit/537.36 (KHTML, like Gecko) Chrome/131.0.0.0 Safari/537.36","WebKit","Chrome","131.0.0.0","Windows","10.0","https://app.prolific.com/","en-US,en;q=0.9","65610d3b7a06953204bbbb62","67949641171f97c04e14fb34","67951289add3d4ce287a6368","","16815","[""You sorted correctly by using the balance 15 times. <br><br> <img src='G_5.jpg' height='90'><img src='G_2.jpg' height='90'><img src='G_3.jpg' height='90'><img src='G_1.jpg' height='90'><img src='G_4.jpg' height='90'><br><br> Your final order is 1,2,3,4,5<br><br><br>Omgne Sort in this game will allow you to sort correctly by using the balance 8 times. Press Enter to learn it!""]","enter","",""
"","","","","","html-keyboard-response","36","274661","0.0-6.0","35","1","2025-01-25 16:34:28","af8d355d56820e421d246a7037deb6e6","69.14.97.166","Mozilla/5.0 (Windows NT 10.0; Win64; x64) AppleWebKit/537.36 (KHTML, like Gecko) Chrome/131.0.0.0 Safari/537.36","WebKit","Chrome","131.0.0.0","Windows","10.0","https://app.prolific.com/","en-US,en;q=0.9","65610d3b7a06953204bbbb62","67949641171f97c04e14fb34","67951289add3d4ce287a6368","","11410","<p>Welcome to the learning phase! <br><br> You will learn by six examples. The following learning trials will not be used to calculate your performance. <br><br> Press Enter to continue.<p/>","\","",""
"","","","","","html-keyboard-response","37","282221","0.0-7.0","35","1","2025-01-25 16:34:28","af8d355d56820e421d246a7037deb6e6","69.14.97.166","Mozilla/5.0 (Windows NT 10.0; Win64; x64) AppleWebKit/537.36 (KHTML, like Gecko) Chrome/131.0.0.0 Safari/537.36","WebKit","Chrome","131.0.0.0","Windows","10.0","https://app.prolific.com/","en-US,en;q=0.9","65610d3b7a06953204bbbb62","67949641171f97c04e14fb34","67951289add3d4ce287a6368","","7555","[""Example 1<br><br>You will watch Omnge Sort in action. Try to identify any patterns in the comparisons made by this method. <br><br>Press Enter to continue.""]","enter","",""
"","","","","","html-keyboard-response","38","282728","0.0-8.0","35","1","2025-01-25 16:34:28","af8d355d56820e421d246a7037deb6e6","69.14.97.166","Mozilla/5.0 (Windows NT 10.0; Win64; x64) AppleWebKit/537.36 (KHTML, like Gecko) Chrome/131.0.0.0 Safari/537.36","WebKit","Chrome","131.0.0.0","Windows","10.0","https://app.prolific.com/","en-US,en;q=0.9","65610d3b7a06953204bbbb62","67949641171f97c04e14fb34","67951289add3d4ce287a6368","","null","<img id='selected' src='G_5.jpg' height='90'> <img src='G_1.jpg' height='90'> <img src='G_7.jpg' height='90'> <img src='G_9.jpg' height='90'> <img src='G_3.jpg' height='90'>","null","Animation0",""
"","","","","","html-keyboard-response","39","283240","0.0-9.0","35","1","2025-01-25 16:34:28","af8d355d56820e421d246a7037deb6e6","69.14.97.166","Mozilla/5.0 (Windows NT 10.0; Win64; x64) AppleWebKit/537.36 (KHTML, like Gecko) Chrome/131.0.0.0 Safari/537.36","WebKit","Chrome","131.0.0.0","Windows","10.0","https://app.prolific.com/","en-US,en;q=0.9","65610d3b7a06953204bbbb62","67949641171f97c04e14fb34","67951289add3d4ce287a6368","","null","<img id='selected' src='G_5.jpg' height='90'> <img id='selected' src='G_1.jpg' height='90'> <img src='G_7.jpg' height='90'> <img src='G_9.jpg' height='90'> <img src='G_3.jpg' height='90'>","null","Animation0",""
"","","","","","html-keyboard-response","40","283756","0.0-10.0","35","1","2025-01-25 16:34:28","af8d355d56820e421d246a7037deb6e6","69.14.97.166","Mozilla/5.0 (Windows NT 10.0; Win64; x64) AppleWebKit/537.36 (KHTML, like Gecko) Chrome/131.0.0.0 Safari/537.36","WebKit","Chrome","131.0.0.0","Windows","10.0","https://app.prolific.com/","en-US,en;q=0.9","65610d3b7a06953204bbbb62","67949641171f97c04e14fb34","67951289add3d4ce287a6368","","null","<img id='swapped' src='G_1.jpg' height='90'> <img id='swapped' src='G_5.jpg' height='90'> <img src='G_7.jpg' height='90'> <img src='G_9.jpg' height='90'> <img src='G_3.jpg' height='90'>","null","Animation0",""
"","","","","","html-keyboard-response","41","284069","0.0-11.0","35","1","2025-01-25 16:34:28","af8d355d56820e421d246a7037deb6e6","69.14.97.166","Mozilla/5.0 (Windows NT 10.0; Win64; x64) AppleWebKit/537.36 (KHTML, like Gecko) Chrome/131.0.0.0 Safari/537.36","WebKit","Chrome","131.0.0.0","Windows","10.0","https://app.prolific.com/","en-US,en;q=0.9","65610d3b7a06953204bbbb62","67949641171f97c04e14fb34","67951289add3d4ce287a6368","","null","<img  src='G_1.jpg' height='90'> <img  src='G_5.jpg' height='90'> <img src='G_7.jpg' height='90'> <img src='G_9.jpg' height='90'> <img src='G_3.jpg' height='90'>","null","Animation0",""
"","","","","","html-keyboard-response","42","284585","0.0-12.0","35","1","2025-01-25 16:34:28","af8d355d56820e421d246a7037deb6e6","69.14.97.166","Mozilla/5.0 (Windows NT 10.0; Win64; x64) AppleWebKit/537.36 (KHTML, like Gecko) Chrome/131.0.0.0 Safari/537.36","WebKit","Chrome","131.0.0.0","Windows","10.0","https://app.prolific.com/","en-US,en;q=0.9","65610d3b7a06953204bbbb62","67949641171f97c04e14fb34","67951289add3d4ce287a6368","","null","<img  src='G_1.jpg' height='90'> <img id='selected'  src='G_5.jpg' height='90'> <img src='G_7.jpg' height='90'> <img src='G_9.jpg' height='90'> <img src='G_3.jpg' height='90'>","null","Animation0",""
"","","","","","html-keyboard-response","43","285100","0.0-13.0","35","1","2025-01-25 16:34:28","af8d355d56820e421d246a7037deb6e6","69.14.97.166","Mozilla/5.0 (Windows NT 10.0; Win64; x64) AppleWebKit/537.36 (KHTML, like Gecko) Chrome/131.0.0.0 Safari/537.36","WebKit","Chrome","131.0.0.0","Windows","10.0","https://app.prolific.com/","en-US,en;q=0.9","65610d3b7a06953204bbbb62","67949641171f97c04e14fb34","67951289add3d4ce287a6368","","null","<img  src='G_1.jpg' height='90'> <img id='selected'  src='G_5.jpg' height='90'> <img id='selected' src='G_7.jpg' height='90'> <img src='G_9.jpg' height='90'> <img src='G_3.jpg' height='90'>","null","Animation0",""
"","","","","","html-keyboard-response","44","285611","0.0-14.0","35","1","2025-01-25 16:34:28","af8d355d56820e421d246a7037deb6e6","69.14.97.166","Mozilla/5.0 (Windows NT 10.0; Win64; x64) AppleWebKit/537.36 (KHTML, like Gecko) Chrome/131.0.0.0 Safari/537.36","WebKit","Chrome","131.0.0.0","Windows","10.0","https://app.prolific.com/","en-US,en;q=0.9","65610d3b7a06953204bbbb62","67949641171f97c04e14fb34","67951289add3d4ce287a6368","","null","<img  src='G_1.jpg' height='90'> <img id='selected'  src='G_5.jpg' height='90'> <img id='selected' src='G_7.jpg' height='90'> <img src='G_9.jpg' height='90'> <img src='G_3.jpg' height='90'>","null","Animation0",""
"","","","","","html-keyboard-response","45","285927","0.0-15.0","35","1","2025-01-25 16:34:28","af8d355d56820e421d246a7037deb6e6","69.14.97.166","Mozilla/5.0 (Windows NT 10.0; Win64; x64) AppleWebKit/537.36 (KHTML, like Gecko) Chrome/131.0.0.0 Safari/537.36","WebKit","Chrome","131.0.0.0","Windows","10.0","https://app.prolific.com/","en-US,en;q=0.9","65610d3b7a06953204bbbb62","67949641171f97c04e14fb34","67951289add3d4ce287a6368","","null","<img  src='G_1.jpg' height='90'> <img   src='G_5.jpg' height='90'> <img  src='G_7.jpg' height='90'> <img src='G_9.jpg' height='90'> <img src='G_3.jpg' height='90'>","null","Animation0",""
"","","","","","html-keyboard-response","46","286448","0.0-16.0","35","1","2025-01-25 16:34:28","af8d355d56820e421d246a7037deb6e6","69.14.97.166","Mozilla/5.0 (Windows NT 10.0; Win64; x64) AppleWebKit/537.36 (KHTML, like Gecko) Chrome/131.0.0.0 Safari/537.36","WebKit","Chrome","131.0.0.0","Windows","10.0","https://app.prolific.com/","en-US,en;q=0.9","65610d3b7a06953204bbbb62","67949641171f97c04e14fb34","67951289add3d4ce287a6368","","null","<img  src='G_1.jpg' height='90'> <img   src='G_5.jpg' height='90'> <img id='selected'  src='G_7.jpg' height='90'> <img src='G_9.jpg' height='90'> <img src='G_3.jpg' height='90'>","null","Animation0",""
"","","","","","html-keyboard-response","47","286973","0.0-17.0","35","1","2025-01-25 16:34:28","af8d355d56820e421d246a7037deb6e6","69.14.97.166","Mozilla/5.0 (Windows NT 10.0; Win64; x64) AppleWebKit/537.36 (KHTML, like Gecko) Chrome/131.0.0.0 Safari/537.36","WebKit","Chrome","131.0.0.0","Windows","10.0","https://app.prolific.com/","en-US,en;q=0.9","65610d3b7a06953204bbbb62","67949641171f97c04e14fb34","67951289add3d4ce287a6368","","null","<img  src='G_1.jpg' height='90'> <img   src='G_5.jpg' height='90'> <img id='selected'  src='G_7.jpg' height='90'> <img id='selected' src='G_9.jpg' height='90'> <img src='G_3.jpg' height='90'>","null","Animation0",""
"","","","","","html-keyboard-response","48","287487","0.0-18.0","35","1","2025-01-25 16:34:28","af8d355d56820e421d246a7037deb6e6","69.14.97.166","Mozilla/5.0 (Windows NT 10.0; Win64; x64) AppleWebKit/537.36 (KHTML, like Gecko) Chrome/131.0.0.0 Safari/537.36","WebKit","Chrome","131.0.0.0","Windows","10.0","https://app.prolific.com/","en-US,en;q=0.9","65610d3b7a06953204bbbb62","67949641171f97c04e14fb34","67951289add3d4ce287a6368","","null","<img  src='G_1.jpg' height='90'> <img   src='G_5.jpg' height='90'> <img id='selected'  src='G_7.jpg' height='90'> <img id='selected' src='G_9.jpg' height='90'> <img src='G_3.jpg' height='90'>","null","Animation0",""
"","","","","","html-keyboard-response","49","287806","0.0-19.0","35","1","2025-01-25 16:34:28","af8d355d56820e421d246a7037deb6e6","69.14.97.166","Mozilla/5.0 (Windows NT 10.0; Win64; x64) AppleWebKit/537.36 (KHTML, like Gecko) Chrome/131.0.0.0 Safari/537.36","WebKit","Chrome","131.0.0.0","Windows","10.0","https://app.prolific.com/","en-US,en;q=0.9","65610d3b7a06953204bbbb62","67949641171f97c04e14fb34","67951289add3d4ce287a6368","","null","<img  src='G_1.jpg' height='90'> <img   src='G_5.jpg' height='90'> <img   src='G_7.jpg' height='90'> <img  src='G_9.jpg' height='90'> <img src='G_3.jpg' height='90'>","null","Animation0",""
"","","","","","html-keyboard-response","50","288323","0.0-20.0","35","1","2025-01-25 16:34:28","af8d355d56820e421d246a7037deb6e6","69.14.97.166","Mozilla/5.0 (Windows NT 10.0; Win64; x64) AppleWebKit/537.36 (KHTML, like Gecko) Chrome/131.0.0.0 Safari/537.36","WebKit","Chrome","131.0.0.0","Windows","10.0","https://app.prolific.com/","en-US,en;q=0.9","65610d3b7a06953204bbbb62","67949641171f97c04e14fb34","67951289add3d4ce287a6368","","null","<img  src='G_1.jpg' height='90'> <img   src='G_5.jpg' height='90'> <img   src='G_7.jpg' height='90'> <img id='selected'  src='G_9.jpg' height='90'> <img src='G_3.jpg' height='90'>","null","Animation0",""
"","","","","","html-keyboard-response","51","288852","0.0-21.0","35","1","2025-01-25 16:34:28","af8d355d56820e421d246a7037deb6e6","69.14.97.166","Mozilla/5.0 (Windows NT 10.0; Win64; x64) AppleWebKit/537.36 (KHTML, like Gecko) Chrome/131.0.0.0 Safari/537.36","WebKit","Chrome","131.0.0.0","Windows","10.0","https://app.prolific.com/","en-US,en;q=0.9","65610d3b7a06953204bbbb62","67949641171f97c04e14fb34","67951289add3d4ce287a6368","","null","<img  src='G_1.jpg' height='90'> <img   src='G_5.jpg' height='90'> <img   src='G_7.jpg' height='90'> <img id='selected'  src='G_9.jpg' height='90'> <img id='selected' src='G_3.jpg' height='90'>","null","Animation0",""
"","","","","","html-keyboard-response","52","289367","0.0-22.0","35","1","2025-01-25 16:34:28","af8d355d56820e421d246a7037deb6e6","69.14.97.166","Mozilla/5.0 (Windows NT 10.0; Win64; x64) AppleWebKit/537.36 (KHTML, like Gecko) Chrome/131.0.0.0 Safari/537.36","WebKit","Chrome","131.0.0.0","Windows","10.0","https://app.prolific.com/","en-US,en;q=0.9","65610d3b7a06953204bbbb62","67949641171f97c04e14fb34","67951289add3d4ce287a6368","","null","<img  src='G_1.jpg' height='90'> <img   src='G_5.jpg' height='90'> <img   src='G_7.jpg' height='90'> <img id='selected'  src='G_9.jpg' height='90'> <img id='selected' src='G_3.jpg' height='90'>","null","Animation0",""
"","","","","","html-keyboard-response","53","289677","0.0-23.0","35","1","2025-01-25 16:34:28","af8d355d56820e421d246a7037deb6e6","69.14.97.166","Mozilla/5.0 (Windows NT 10.0; Win64; x64) AppleWebKit/537.36 (KHTML, like Gecko) Chrome/131.0.0.0 Safari/537.36","WebKit","Chrome","131.0.0.0","Windows","10.0","https://app.prolific.com/","en-US,en;q=0.9","65610d3b7a06953204bbbb62","67949641171f97c04e14fb34","67951289add3d4ce287a6368","","null","<img  src='G_1.jpg' height='90'> <img   src='G_5.jpg' height='90'> <img   src='G_7.jpg' height='90'> <img   src='G_9.jpg' height='90'> <img  src='G_3.jpg' height='90'>","null","Animation0",""
"","","","","","html-keyboard-response","54","295014","0.0-24.0","35","1","2025-01-25 16:34:28","af8d355d56820e421d246a7037deb6e6","69.14.97.166","Mozilla/5.0 (Windows NT 10.0; Win64; x64) AppleWebKit/537.36 (KHTML, like Gecko) Chrome/131.0.0.0 Safari/537.36","WebKit","Chrome","131.0.0.0","Windows","10.0","https://app.prolific.com/","en-US,en;q=0.9","65610d3b7a06953204bbbb62","67949641171f97c04e14fb34","67951289add3d4ce287a6368","","5331","[""Did you notice any patterns? <br><br>Press Enter to watch that example again and follow the steps of Omgne Sort.""]","enter","",""
"","","","","","html-button-response","55","295432","0.0-25.0","35","1","2025-01-25 16:34:28","af8d355d56820e421d246a7037deb6e6","69.14.97.166","Mozilla/5.0 (Windows NT 10.0; Win64; x64) AppleWebKit/537.36 (KHTML, like Gecko) Chrome/131.0.0.0 Safari/537.36","WebKit","Chrome","131.0.0.0","Windows","10.0","https://app.prolific.com/","en-US,en;q=0.9","65610d3b7a06953204bbbb62","67949641171f97c04e14fb34","67951289add3d4ce287a6368","","null","<img id='selected' src='G_5.jpg' height='90'> <img src='G_1.jpg' height='90'> <img src='G_7.jpg' height='90'> <img src='G_9.jpg' height='90'> <img src='G_3.jpg' height='90'>","null","Learning example 0",""
"","","","","","html-button-response","56","295756","0.0-26.0","35","1","2025-01-25 16:34:28","af8d355d56820e421d246a7037deb6e6","69.14.97.166","Mozilla/5.0 (Windows NT 10.0; Win64; x64) AppleWebKit/537.36 (KHTML, like Gecko) Chrome/131.0.0.0 Safari/537.36","WebKit","Chrome","131.0.0.0","Windows","10.0","https://app.prolific.com/","en-US,en;q=0.9","65610d3b7a06953204bbbb62","67949641171f97c04e14fb34","67951289add3d4ce287a6368","","null","<img id='selected' src='G_5.jpg' height='90'> <img id='selected' src='G_1.jpg' height='90'> <img src='G_7.jpg' height='90'> <img src='G_9.jpg' height='90'> <img src='G_3.jpg' height='90'>","null","Learning example 0",""
"","","","","","html-button-response","57","296076","0.0-27.0","35","1","2025-01-25 16:34:28","af8d355d56820e421d246a7037deb6e6","69.14.97.166","Mozilla/5.0 (Windows NT 10.0; Win64; x64) AppleWebKit/537.36 (KHTML, like Gecko) Chrome/131.0.0.0 Safari/537.36","WebKit","Chrome","131.0.0.0","Windows","10.0","https://app.prolific.com/","en-US,en;q=0.9","65610d3b7a06953204bbbb62","67949641171f97c04e14fb34","67951289add3d4ce287a6368","","null","<img id='swapped' src='G_1.jpg' height='90'> <img id='swapped' src='G_5.jpg' height='90'> <img src='G_7.jpg' height='90'> <img src='G_9.jpg' height='90'> <img src='G_3.jpg' height='90'>","null","Learning example 0",""
"","","","","","html-button-response","58","319806","0.0-28.0-0.0-0.0","35","1","2025-01-25 16:34:28","af8d355d56820e421d246a7037deb6e6","69.14.97.166","Mozilla/5.0 (Windows NT 10.0; Win64; x64) AppleWebKit/537.36 (KHTML, like Gecko) Chrome/131.0.0.0 Safari/537.36","WebKit","Chrome","131.0.0.0","Windows","10.0","https://app.prolific.com/","en-US,en;q=0.9","65610d3b7a06953204bbbb62","67949641171f97c04e14fb34","67951289add3d4ce287a6368","","23719","<img id='swapped' src='G_1.jpg' height='90'> <img id='swapped' src='G_5.jpg' height='90'> <img src='G_7.jpg' height='90'> <img src='G_9.jpg' height='90'> <img src='G_3.jpg' height='90'>","1","Learning example 0",""
"","","","","","html-button-response","59","320327","0.0-28.1-0.1-0.1","35","1","2025-01-25 16:34:28","af8d355d56820e421d246a7037deb6e6","69.14.97.166","Mozilla/5.0 (Windows NT 10.0; Win64; x64) AppleWebKit/537.36 (KHTML, like Gecko) Chrome/131.0.0.0 Safari/537.36","WebKit","Chrome","131.0.0.0","Windows","10.0","https://app.prolific.com/","en-US,en;q=0.9","65610d3b7a06953204bbbb62","67949641171f97c04e14fb34","67951289add3d4ce287a6368","","512","<img id='swapped' src='G_1.jpg' height='90'> <img id='swapped' src='G_5.jpg' height='90'> <img src='G_7.jpg' height='90'> <img src='G_9.jpg' height='90'> <img src='G_3.jpg' height='90'>","0","Learning example 0",""
"","","","","","html-button-response","60","320536","0.0-29.0","35","1","2025-01-25 16:34:28","af8d355d56820e421d246a7037deb6e6","69.14.97.166","Mozilla/5.0 (Windows NT 10.0; Win64; x64) AppleWebKit/537.36 (KHTML, like Gecko) Chrome/131.0.0.0 Safari/537.36","WebKit","Chrome","131.0.0.0","Windows","10.0","https://app.prolific.com/","en-US,en;q=0.9","65610d3b7a06953204bbbb62","67949641171f97c04e14fb34","67951289add3d4ce287a6368","","null","<img  src='G_1.jpg' height='90'> <img  src='G_5.jpg' height='90'> <img src='G_7.jpg' height='90'> <img src='G_9.jpg' height='90'> <img src='G_3.jpg' height='90'>","null","Learning example 0",""
"","","","","","html-button-response","61","320950","0.0-30.0","35","1","2025-01-25 16:34:28","af8d355d56820e421d246a7037deb6e6","69.14.97.166","Mozilla/5.0 (Windows NT 10.0; Win64; x64) AppleWebKit/537.36 (KHTML, like Gecko) Chrome/131.0.0.0 Safari/537.36","WebKit","Chrome","131.0.0.0","Windows","10.0","https://app.prolific.com/","en-US,en;q=0.9","65610d3b7a06953204bbbb62","67949641171f97c04e14fb34","67951289add3d4ce287a6368","","null","<img  src='G_1.jpg' height='90'> <img id='selected'  src='G_5.jpg' height='90'> <img src='G_7.jpg' height='90'> <img src='G_9.jpg' height='90'> <img src='G_3.jpg' height='90'>","null","Learning example 0",""
"","","","","","html-button-response","62","321275","0.0-31.0","35","1","2025-01-25 16:34:28","af8d355d56820e421d246a7037deb6e6","69.14.97.166","Mozilla/5.0 (Windows NT 10.0; Win64; x64) AppleWebKit/537.36 (KHTML, like Gecko) Chrome/131.0.0.0 Safari/537.36","WebKit","Chrome","131.0.0.0","Windows","10.0","https://app.prolific.com/","en-US,en;q=0.9","65610d3b7a06953204bbbb62","67949641171f97c04e14fb34","67951289add3d4ce287a6368","","null","<img  src='G_1.jpg' height='90'> <img id='selected'  src='G_5.jpg' height='90'> <img id='selected' src='G_7.jpg' height='90'> <img src='G_9.jpg' height='90'> <img src='G_3.jpg' height='90'>","null","Learning example 0",""
"","","","","","html-button-response","63","321589","0.0-32.0","35","1","2025-01-25 16:34:28","af8d355d56820e421d246a7037deb6e6","69.14.97.166","Mozilla/5.0 (Windows NT 10.0; Win64; x64) AppleWebKit/537.36 (KHTML, like Gecko) Chrome/131.0.0.0 Safari/537.36","WebKit","Chrome","131.0.0.0","Windows","10.0","https://app.prolific.com/","en-US,en;q=0.9","65610d3b7a06953204bbbb62","67949641171f97c04e14fb34","67951289add3d4ce287a6368","","null","<img  src='G_1.jpg' height='90'> <img id='selected'  src='G_5.jpg' height='90'> <img id='selected' src='G_7.jpg' height='90'> <img src='G_9.jpg' height='90'> <img src='G_3.jpg' height='90'>","null","Learning example 0",""
"","","","","","html-button-response","64","323686","0.0-33.0-0.0-0.0","35","1","2025-01-25 16:34:28","af8d355d56820e421d246a7037deb6e6","69.14.97.166","Mozilla/5.0 (Windows NT 10.0; Win64; x64) AppleWebKit/537.36 (KHTML, like Gecko) Chrome/131.0.0.0 Safari/537.36","WebKit","Chrome","131.0.0.0","Windows","10.0","https://app.prolific.com/","en-US,en;q=0.9","65610d3b7a06953204bbbb62","67949641171f97c04e14fb34","67951289add3d4ce287a6368","","2090","<img  src='G_1.jpg' height='90'> <img id='selected'  src='G_5.jpg' height='90'> <img id='selected' src='G_7.jpg' height='90'> <img src='G_9.jpg' height='90'> <img src='G_3.jpg' height='90'>","1","Learning example 0",""
"","","","","","html-button-response","65","324187","0.0-33.1-0.1-0.1","35","1","2025-01-25 16:34:28","af8d355d56820e421d246a7037deb6e6","69.14.97.166","Mozilla/5.0 (Windows NT 10.0; Win64; x64) AppleWebKit/537.36 (KHTML, like Gecko) Chrome/131.0.0.0 Safari/537.36","WebKit","Chrome","131.0.0.0","Windows","10.0","https://app.prolific.com/","en-US,en;q=0.9","65610d3b7a06953204bbbb62","67949641171f97c04e14fb34","67951289add3d4ce287a6368","","493","<img  src='G_1.jpg' height='90'> <img id='selected'  src='G_5.jpg' height='90'> <img id='selected' src='G_7.jpg' height='90'> <img src='G_9.jpg' height='90'> <img src='G_3.jpg' height='90'>","2","Learning example 0",""
"","","","","","html-button-response","66","324403","0.0-34.0","35","1","2025-01-25 16:34:28","af8d355d56820e421d246a7037deb6e6","69.14.97.166","Mozilla/5.0 (Windows NT 10.0; Win64; x64) AppleWebKit/537.36 (KHTML, like Gecko) Chrome/131.0.0.0 Safari/537.36","WebKit","Chrome","131.0.0.0","Windows","10.0","https://app.prolific.com/","en-US,en;q=0.9","65610d3b7a06953204bbbb62","67949641171f97c04e14fb34","67951289add3d4ce287a6368","","null","<img  src='G_1.jpg' height='90'> <img   src='G_5.jpg' height='90'> <img  src='G_7.jpg' height='90'> <img src='G_9.jpg' height='90'> <img src='G_3.jpg' height='90'>","null","Learning example 0",""
"","","","","","html-button-response","67","324817","0.0-35.0","35","1","2025-01-25 16:34:28","af8d355d56820e421d246a7037deb6e6","69.14.97.166","Mozilla/5.0 (Windows NT 10.0; Win64; x64) AppleWebKit/537.36 (KHTML, like Gecko) Chrome/131.0.0.0 Safari/537.36","WebKit","Chrome","131.0.0.0","Windows","10.0","https://app.prolific.com/","en-US,en;q=0.9","65610d3b7a06953204bbbb62","67949641171f97c04e14fb34","67951289add3d4ce287a6368","","null","<img  src='G_1.jpg' height='90'> <img   src='G_5.jpg' height='90'> <img id='selected'  src='G_7.jpg' height='90'> <img src='G_9.jpg' height='90'> <img src='G_3.jpg' height='90'>","null","Learning example 0",""
"","","","","","html-button-response","68","325133","0.0-36.0","35","1","2025-01-25 16:34:28","af8d355d56820e421d246a7037deb6e6","69.14.97.166","Mozilla/5.0 (Windows NT 10.0; Win64; x64) AppleWebKit/537.36 (KHTML, like Gecko) Chrome/131.0.0.0 Safari/537.36","WebKit","Chrome","131.0.0.0","Windows","10.0","https://app.prolific.com/","en-US,en;q=0.9","65610d3b7a06953204bbbb62","67949641171f97c04e14fb34","67951289add3d4ce287a6368","","null","<img  src='G_1.jpg' height='90'> <img   src='G_5.jpg' height='90'> <img id='selected'  src='G_7.jpg' height='90'> <img id='selected' src='G_9.jpg' height='90'> <img src='G_3.jpg' height='90'>","null","Learning example 0",""
"","","","","","html-button-response","69","325450","0.0-37.0","35","1","2025-01-25 16:34:28","af8d355d56820e421d246a7037deb6e6","69.14.97.166","Mozilla/5.0 (Windows NT 10.0; Win64; x64) AppleWebKit/537.36 (KHTML, like Gecko) Chrome/131.0.0.0 Safari/537.36","WebKit","Chrome","131.0.0.0","Windows","10.0","https://app.prolific.com/","en-US,en;q=0.9","65610d3b7a06953204bbbb62","67949641171f97c04e14fb34","67951289add3d4ce287a6368","","null","<img  src='G_1.jpg' height='90'> <img   src='G_5.jpg' height='90'> <img id='selected'  src='G_7.jpg' height='90'> <img id='selected' src='G_9.jpg' height='90'> <img src='G_3.jpg' height='90'>","null","Learning example 0",""
"","","","","","html-button-response","70","326110","0.0-38.0-0.0-0.0","35","1","2025-01-25 16:34:28","af8d355d56820e421d246a7037deb6e6","69.14.97.166","Mozilla/5.0 (Windows NT 10.0; Win64; x64) AppleWebKit/537.36 (KHTML, like Gecko) Chrome/131.0.0.0 Safari/537.36","WebKit","Chrome","131.0.0.0","Windows","10.0","https://app.prolific.com/","en-US,en;q=0.9","65610d3b7a06953204bbbb62","67949641171f97c04e14fb34","67951289add3d4ce287a6368","","651","<img  src='G_1.jpg' height='90'> <img   src='G_5.jpg' height='90'> <img id='selected'  src='G_7.jpg' height='90'> <img id='selected' src='G_9.jpg' height='90'> <img src='G_3.jpg' height='90'>","3","Learning example 0",""
"","","","","","html-button-response","71","327198","0.0-38.1-0.1-0.1","35","1","2025-01-25 16:34:28","af8d355d56820e421d246a7037deb6e6","69.14.97.166","Mozilla/5.0 (Windows NT 10.0; Win64; x64) AppleWebKit/537.36 (KHTML, like Gecko) Chrome/131.0.0.0 Safari/537.36","WebKit","Chrome","131.0.0.0","Windows","10.0","https://app.prolific.com/","en-US,en;q=0.9","65610d3b7a06953204bbbb62","67949641171f97c04e14fb34","67951289add3d4ce287a6368","","1079","<img  src='G_1.jpg' height='90'> <img   src='G_5.jpg' height='90'> <img id='selected'  src='G_7.jpg' height='90'> <img id='selected' src='G_9.jpg' height='90'> <img src='G_3.jpg' height='90'>","2","Learning example 0",""
"","","","","","html-button-response","72","327417","0.0-39.0","35","1","2025-01-25 16:34:28","af8d355d56820e421d246a7037deb6e6","69.14.97.166","Mozilla/5.0 (Windows NT 10.0; Win64; x64) AppleWebKit/537.36 (KHTML, like Gecko) Chrome/131.0.0.0 Safari/537.36","WebKit","Chrome","131.0.0.0","Windows","10.0","https://app.prolific.com/","en-US,en;q=0.9","65610d3b7a06953204bbbb62","67949641171f97c04e14fb34","67951289add3d4ce287a6368","","null","<img  src='G_1.jpg' height='90'> <img   src='G_5.jpg' height='90'> <img   src='G_7.jpg' height='90'> <img  src='G_9.jpg' height='90'> <img src='G_3.jpg' height='90'>","null","Learning example 0",""
"","","","","","html-button-response","73","327839","0.0-40.0","35","1","2025-01-25 16:34:28","af8d355d56820e421d246a7037deb6e6","69.14.97.166","Mozilla/5.0 (Windows NT 10.0; Win64; x64) AppleWebKit/537.36 (KHTML, like Gecko) Chrome/131.0.0.0 Safari/537.36","WebKit","Chrome","131.0.0.0","Windows","10.0","https://app.prolific.com/","en-US,en;q=0.9","65610d3b7a06953204bbbb62","67949641171f97c04e14fb34","67951289add3d4ce287a6368","","null","<img  src='G_1.jpg' height='90'> <img   src='G_5.jpg' height='90'> <img   src='G_7.jpg' height='90'> <img id='selected'  src='G_9.jpg' height='90'> <img src='G_3.jpg' height='90'>","null","Learning example 0",""
"","","","","","html-button-response","74","328150","0.0-41.0","35","1","2025-01-25 16:34:28","af8d355d56820e421d246a7037deb6e6","69.14.97.166","Mozilla/5.0 (Windows NT 10.0; Win64; x64) AppleWebKit/537.36 (KHTML, like Gecko) Chrome/131.0.0.0 Safari/537.36","WebKit","Chrome","131.0.0.0","Windows","10.0","https://app.prolific.com/","en-US,en;q=0.9","65610d3b7a06953204bbbb62","67949641171f97c04e14fb34","67951289add3d4ce287a6368","","null","<img  src='G_1.jpg' height='90'> <img   src='G_5.jpg' height='90'> <img   src='G_7.jpg' height='90'> <img id='selected'  src='G_9.jpg' height='90'> <img id='selected' src='G_3.jpg' height='90'>","null","Learning example 0",""
"","","","","","html-button-response","75","328474","0.0-42.0","35","1","2025-01-25 16:34:28","af8d355d56820e421d246a7037deb6e6","69.14.97.166","Mozilla/5.0 (Windows NT 10.0; Win64; x64) AppleWebKit/537.36 (KHTML, like Gecko) Chrome/131.0.0.0 Safari/537.36","WebKit","Chrome","131.0.0.0","Windows","10.0","https://app.prolific.com/","en-US,en;q=0.9","65610d3b7a06953204bbbb62","67949641171f97c04e14fb34","67951289add3d4ce287a6368","","null","<img  src='G_1.jpg' height='90'> <img   src='G_5.jpg' height='90'> <img   src='G_7.jpg' height='90'> <img id='selected'  src='G_9.jpg' height='90'> <img id='selected' src='G_3.jpg' height='90'>","null","Learning example 0",""
"","","","","","html-button-response","76","328756","0.0-43.0-0.0-0.0","35","1","2025-01-25 16:34:28","af8d355d56820e421d246a7037deb6e6","69.14.97.166","Mozilla/5.0 (Windows NT 10.0; Win64; x64) AppleWebKit/537.36 (KHTML, like Gecko) Chrome/131.0.0.0 Safari/537.36","WebKit","Chrome","131.0.0.0","Windows","10.0","https://app.prolific.com/","en-US,en;q=0.9","65610d3b7a06953204bbbb62","67949641171f97c04e14fb34","67951289add3d4ce287a6368","","270","<img  src='G_1.jpg' height='90'> <img   src='G_5.jpg' height='90'> <img   src='G_7.jpg' height='90'> <img id='selected'  src='G_9.jpg' height='90'> <img id='selected' src='G_3.jpg' height='90'>","3","Learning example 0",""
"","","","","","html-button-response","77","329287","0.0-43.1-0.1-0.1","35","1","2025-01-25 16:34:28","af8d355d56820e421d246a7037deb6e6","69.14.97.166","Mozilla/5.0 (Windows NT 10.0; Win64; x64) AppleWebKit/537.36 (KHTML, like Gecko) Chrome/131.0.0.0 Safari/537.36","WebKit","Chrome","131.0.0.0","Windows","10.0","https://app.prolific.com/","en-US,en;q=0.9","65610d3b7a06953204bbbb62","67949641171f97c04e14fb34","67951289add3d4ce287a6368","","526","<img  src='G_1.jpg' height='90'> <img   src='G_5.jpg' height='90'> <img   src='G_7.jpg' height='90'> <img id='selected'  src='G_9.jpg' height='90'> <img id='selected' src='G_3.jpg' height='90'>","4","Learning example 0",""
"","","","","","html-button-response","78","329501","0.0-44.0","35","1","2025-01-25 16:34:28","af8d355d56820e421d246a7037deb6e6","69.14.97.166","Mozilla/5.0 (Windows NT 10.0; Win64; x64) AppleWebKit/537.36 (KHTML, like Gecko) Chrome/131.0.0.0 Safari/537.36","WebKit","Chrome","131.0.0.0","Windows","10.0","https://app.prolific.com/","en-US,en;q=0.9","65610d3b7a06953204bbbb62","67949641171f97c04e14fb34","67951289add3d4ce287a6368","","null","<img  src='G_1.jpg' height='90'> <img   src='G_5.jpg' height='90'> <img   src='G_7.jpg' height='90'> <img   src='G_9.jpg' height='90'> <img  src='G_3.jpg' height='90'>","null","Learning example 0",""
"","","","","","html-keyboard-response","79","340429","0.0-45.0","35","1","2025-01-25 16:34:28","af8d355d56820e421d246a7037deb6e6","69.14.97.166","Mozilla/5.0 (Windows NT 10.0; Win64; x64) AppleWebKit/537.36 (KHTML, like Gecko) Chrome/131.0.0.0 Safari/537.36","WebKit","Chrome","131.0.0.0","Windows","10.0","https://app.prolific.com/","en-US,en;q=0.9","65610d3b7a06953204bbbb62","67949641171f97c04e14fb34","67951289add3d4ce287a6368","","10920","[""Final order was 1,2,3,4,5. The initial order was 2,1,3,4,5.<br>It took 1 swaps to sort it correctly with Omgne Sort. <br><br>Press Enter to continue.""]","enter","",""
"","","","","","html-keyboard-response","80","349309","0.0-46.0","35","1","2025-01-25 16:34:28","af8d355d56820e421d246a7037deb6e6","69.14.97.166","Mozilla/5.0 (Windows NT 10.0; Win64; x64) AppleWebKit/537.36 (KHTML, like Gecko) Chrome/131.0.0.0 Safari/537.36","WebKit","Chrome","131.0.0.0","Windows","10.0","https://app.prolific.com/","en-US,en;q=0.9","65610d3b7a06953204bbbb62","67949641171f97c04e14fb34","67951289add3d4ce287a6368","","8870","[""Example 2<br><br>You will watch Omnge Sort in action. Try to identify any patterns in the comparisons made by this method. <br><br>Press Enter to continue.""]","enter","",""
"","","","","","html-keyboard-response","81","349826","0.0-47.0","35","1","2025-01-25 16:34:28","af8d355d56820e421d246a7037deb6e6","69.14.97.166","Mozilla/5.0 (Windows NT 10.0; Win64; x64) AppleWebKit/537.36 (KHTML, like Gecko) Chrome/131.0.0.0 Safari/537.36","WebKit","Chrome","131.0.0.0","Windows","10.0","https://app.prolific.com/","en-US,en;q=0.9","65610d3b7a06953204bbbb62","67949641171f97c04e14fb34","67951289add3d4ce287a6368","","null","<img id='selected' src='G_6.jpg' height='90'> <img src='G_7.jpg' height='90'> <img src='G_1.jpg' height='90'> <img src='G_2.jpg' height='90'> <img src='G_3.jpg' height='90'> <img src='G_5.jpg' height='90'> <img src='G_4.jpg' height='90'> <img src='G_8.jpg' height='90'>","null","Animation1",""
"","","","","","html-keyboard-response","82","350355","0.0-48.0","35","1","2025-01-25 16:34:28","af8d355d56820e421d246a7037deb6e6","69.14.97.166","Mozilla/5.0 (Windows NT 10.0; Win64; x64) AppleWebKit/537.36 (KHTML, like Gecko) Chrome/131.0.0.0 Safari/537.36","WebKit","Chrome","131.0.0.0","Windows","10.0","https://app.prolific.com/","en-US,en;q=0.9","65610d3b7a06953204bbbb62","67949641171f97c04e14fb34","67951289add3d4ce287a6368","","null","<img id='selected' src='G_6.jpg' height='90'> <img id='selected' src='G_7.jpg' height='90'> <img src='G_1.jpg' height='90'> <img src='G_2.jpg' height='90'> <img src='G_3.jpg' height='90'> <img src='G_5.jpg' height='90'> <img src='G_4.jpg' height='90'> <img src='G_8.jpg' height='90'>","null","Animation1",""
"","","","","","html-keyboard-response","83","350873","0.0-49.0","35","1","2025-01-25 16:34:28","af8d355d56820e421d246a7037deb6e6","69.14.97.166","Mozilla/5.0 (Windows NT 10.0; Win64; x64) AppleWebKit/537.36 (KHTML, like Gecko) Chrome/131.0.0.0 Safari/537.36","WebKit","Chrome","131.0.0.0","Windows","10.0","https://app.prolific.com/","en-US,en;q=0.9","65610d3b7a06953204bbbb62","67949641171f97c04e14fb34","67951289add3d4ce287a6368","","null","<img id='selected' src='G_6.jpg' height='90'> <img id='selected' src='G_7.jpg' height='90'> <img src='G_1.jpg' height='90'> <img src='G_2.jpg' height='90'> <img src='G_3.jpg' height='90'> <img src='G_5.jpg' height='90'> <img src='G_4.jpg' height='90'> <img src='G_8.jpg' height='90'>","null","Animation1",""
"","","","","","html-keyboard-response","84","351200","0.0-50.0","35","1","2025-01-25 16:34:28","af8d355d56820e421d246a7037deb6e6","69.14.97.166","Mozilla/5.0 (Windows NT 10.0; Win64; x64) AppleWebKit/537.36 (KHTML, like Gecko) Chrome/131.0.0.0 Safari/537.36","WebKit","Chrome","131.0.0.0","Windows","10.0","https://app.prolific.com/","en-US,en;q=0.9","65610d3b7a06953204bbbb62","67949641171f97c04e14fb34","67951289add3d4ce287a6368","","null","<img  src='G_6.jpg' height='90'> <img  src='G_7.jpg' height='90'> <img src='G_1.jpg' height='90'> <img src='G_2.jpg' height='90'> <img src='G_3.jpg' height='90'> <img src='G_5.jpg' height='90'> <img src='G_4.jpg' height='90'> <img src='G_8.jpg' height='90'>","null","Animation1",""
"","","","","","html-keyboard-response","85","351716","0.0-51.0","35","1","2025-01-25 16:34:28","af8d355d56820e421d246a7037deb6e6","69.14.97.166","Mozilla/5.0 (Windows NT 10.0; Win64; x64) AppleWebKit/537.36 (KHTML, like Gecko) Chrome/131.0.0.0 Safari/537.36","WebKit","Chrome","131.0.0.0","Windows","10.0","https://app.prolific.com/","en-US,en;q=0.9","65610d3b7a06953204bbbb62","67949641171f97c04e14fb34","67951289add3d4ce287a6368","","null","<img  src='G_6.jpg' height='90'> <img id='selected'  src='G_7.jpg' height='90'> <img src='G_1.jpg' height='90'> <img src='G_2.jpg' height='90'> <img src='G_3.jpg' height='90'> <img src='G_5.jpg' height='90'> <img src='G_4.jpg' height='90'> <img src='G_8.jpg' height='90'>","null","Animation1",""
"","","","","","html-keyboard-response","86","352228","0.0-52.0","35","1","2025-01-25 16:34:28","af8d355d56820e421d246a7037deb6e6","69.14.97.166","Mozilla/5.0 (Windows NT 10.0; Win64; x64) AppleWebKit/537.36 (KHTML, like Gecko) Chrome/131.0.0.0 Safari/537.36","WebKit","Chrome","131.0.0.0","Windows","10.0","https://app.prolific.com/","en-US,en;q=0.9","65610d3b7a06953204bbbb62","67949641171f97c04e14fb34","67951289add3d4ce287a6368","","null","<img  src='G_6.jpg' height='90'> <img id='selected'  src='G_7.jpg' height='90'> <img id='selected' src='G_1.jpg' height='90'> <img src='G_2.jpg' height='90'> <img src='G_3.jpg' height='90'> <img src='G_5.jpg' height='90'> <img src='G_4.jpg' height='90'> <img src='G_8.jpg' height='90'>","null","Animation1",""
"","","","","","html-keyboard-response","87","352743","0.0-53.0","35","1","2025-01-25 16:34:28","af8d355d56820e421d246a7037deb6e6","69.14.97.166","Mozilla/5.0 (Windows NT 10.0; Win64; x64) AppleWebKit/537.36 (KHTML, like Gecko) Chrome/131.0.0.0 Safari/537.36","WebKit","Chrome","131.0.0.0","Windows","10.0","https://app.prolific.com/","en-US,en;q=0.9","65610d3b7a06953204bbbb62","67949641171f97c04e14fb34","67951289add3d4ce287a6368","","null","<img  src='G_6.jpg' height='90'> <img id='swapped' src='G_1.jpg' height='90'> <img id='swapped'  src='G_7.jpg' height='90'> <img src='G_2.jpg' height='90'> <img src='G_3.jpg' height='90'> <img src='G_5.jpg' height='90'> <img src='G_4.jpg' height='90'> <img src='G_8.jpg' height='90'>","null","Animation1",""
"","","","","","html-keyboard-response","88","353059","0.0-54.0","35","1","2025-01-25 16:34:28","af8d355d56820e421d246a7037deb6e6","69.14.97.166","Mozilla/5.0 (Windows NT 10.0; Win64; x64) AppleWebKit/537.36 (KHTML, like Gecko) Chrome/131.0.0.0 Safari/537.36","WebKit","Chrome","131.0.0.0","Windows","10.0","https://app.prolific.com/","en-US,en;q=0.9","65610d3b7a06953204bbbb62","67949641171f97c04e14fb34","67951289add3d4ce287a6368","","null","<img  src='G_6.jpg' height='90'> <img  src='G_1.jpg' height='90'> <img   src='G_7.jpg' height='90'> <img src='G_2.jpg' height='90'> <img src='G_3.jpg' height='90'> <img src='G_5.jpg' height='90'> <img src='G_4.jpg' height='90'> <img src='G_8.jpg' height='90'>","null","Animation1",""
"","","","","","html-keyboard-response","89","353572","0.0-55.0","35","1","2025-01-25 16:34:28","af8d355d56820e421d246a7037deb6e6","69.14.97.166","Mozilla/5.0 (Windows NT 10.0; Win64; x64) AppleWebKit/537.36 (KHTML, like Gecko) Chrome/131.0.0.0 Safari/537.36","WebKit","Chrome","131.0.0.0","Windows","10.0","https://app.prolific.com/","en-US,en;q=0.9","65610d3b7a06953204bbbb62","67949641171f97c04e14fb34","67951289add3d4ce287a6368","","null","<img id='selected'  src='G_6.jpg' height='90'> <img  src='G_1.jpg' height='90'> <img   src='G_7.jpg' height='90'> <img src='G_2.jpg' height='90'> <img src='G_3.jpg' height='90'> <img src='G_5.jpg' height='90'> <img src='G_4.jpg' height='90'> <img src='G_8.jpg' height='90'>","null","Animation1",""
"","","","","","html-keyboard-response","90","354097","0.0-56.0","35","1","2025-01-25 16:34:28","af8d355d56820e421d246a7037deb6e6","69.14.97.166","Mozilla/5.0 (Windows NT 10.0; Win64; x64) AppleWebKit/537.36 (KHTML, like Gecko) Chrome/131.0.0.0 Safari/537.36","WebKit","Chrome","131.0.0.0","Windows","10.0","https://app.prolific.com/","en-US,en;q=0.9","65610d3b7a06953204bbbb62","67949641171f97c04e14fb34","67951289add3d4ce287a6368","","null","<img id='selected'  src='G_6.jpg' height='90'> <img id='selected'  src='G_1.jpg' height='90'> <img   src='G_7.jpg' height='90'> <img src='G_2.jpg' height='90'> <img src='G_3.jpg' height='90'> <img src='G_5.jpg' height='90'> <img src='G_4.jpg' height='90'> <img src='G_8.jpg' height='90'>","null","Animation1",""
"","","","","","html-keyboard-response","91","354617","0.0-57.0","35","1","2025-01-25 16:34:28","af8d355d56820e421d246a7037deb6e6","69.14.97.166","Mozilla/5.0 (Windows NT 10.0; Win64; x64) AppleWebKit/537.36 (KHTML, like Gecko) Chrome/131.0.0.0 Safari/537.36","WebKit","Chrome","131.0.0.0","Windows","10.0","https://app.prolific.com/","en-US,en;q=0.9","65610d3b7a06953204bbbb62","67949641171f97c04e14fb34","67951289add3d4ce287a6368","","null","<img id='swapped'  src='G_1.jpg' height='90'> <img id='swapped'  src='G_6.jpg' height='90'> <img   src='G_7.jpg' height='90'> <img src='G_2.jpg' height='90'> <img src='G_3.jpg' height='90'> <img src='G_5.jpg' height='90'> <img src='G_4.jpg' height='90'> <img src='G_8.jpg' height='90'>","null","Animation1",""
"","","","","","html-keyboard-response","92","354942","0.0-58.0","35","1","2025-01-25 16:34:28","af8d355d56820e421d246a7037deb6e6","69.14.97.166","Mozilla/5.0 (Windows NT 10.0; Win64; x64) AppleWebKit/537.36 (KHTML, like Gecko) Chrome/131.0.0.0 Safari/537.36","WebKit","Chrome","131.0.0.0","Windows","10.0","https://app.prolific.com/","en-US,en;q=0.9","65610d3b7a06953204bbbb62","67949641171f97c04e14fb34","67951289add3d4ce287a6368","","null","<img   src='G_1.jpg' height='90'> <img   src='G_6.jpg' height='90'> <img   src='G_7.jpg' height='90'> <img src='G_2.jpg' height='90'> <img src='G_3.jpg' height='90'> <img src='G_5.jpg' height='90'> <img src='G_4.jpg' height='90'> <img src='G_8.jpg' height='90'>","null","Animation1",""
"","","","","","html-keyboard-response","93","355458","0.0-59.0","35","1","2025-01-25 16:34:28","af8d355d56820e421d246a7037deb6e6","69.14.97.166","Mozilla/5.0 (Windows NT 10.0; Win64; x64) AppleWebKit/537.36 (KHTML, like Gecko) Chrome/131.0.0.0 Safari/537.36","WebKit","Chrome","131.0.0.0","Windows","10.0","https://app.prolific.com/","en-US,en;q=0.9","65610d3b7a06953204bbbb62","67949641171f97c04e14fb34","67951289add3d4ce287a6368","","null","<img   src='G_1.jpg' height='90'> <img   src='G_6.jpg' height='90'> <img id='selected'   src='G_7.jpg' height='90'> <img src='G_2.jpg' height='90'> <img src='G_3.jpg' height='90'> <img src='G_5.jpg' height='90'> <img src='G_4.jpg' height='90'> <img src='G_8.jpg' height='90'>","null","Animation1",""
"","","","","","html-keyboard-response","94","355979","0.0-60.0","35","1","2025-01-25 16:34:28","af8d355d56820e421d246a7037deb6e6","69.14.97.166","Mozilla/5.0 (Windows NT 10.0; Win64; x64) AppleWebKit/537.36 (KHTML, like Gecko) Chrome/131.0.0.0 Safari/537.36","WebKit","Chrome","131.0.0.0","Windows","10.0","https://app.prolific.com/","en-US,en;q=0.9","65610d3b7a06953204bbbb62","67949641171f97c04e14fb34","67951289add3d4ce287a6368","","null","<img   src='G_1.jpg' height='90'> <img   src='G_6.jpg' height='90'> <img id='selected'   src='G_7.jpg' height='90'> <img id='selected' src='G_2.jpg' height='90'> <img src='G_3.jpg' height='90'> <img src='G_5.jpg' height='90'> <img src='G_4.jpg' height='90'> <img src='G_8.jpg' height='90'>","null","Animation1",""
"","","","","","html-keyboard-response","95","356495","0.0-61.0","35","1","2025-01-25 16:34:28","af8d355d56820e421d246a7037deb6e6","69.14.97.166","Mozilla/5.0 (Windows NT 10.0; Win64; x64) AppleWebKit/537.36 (KHTML, like Gecko) Chrome/131.0.0.0 Safari/537.36","WebKit","Chrome","131.0.0.0","Windows","10.0","https://app.prolific.com/","en-US,en;q=0.9","65610d3b7a06953204bbbb62","67949641171f97c04e14fb34","67951289add3d4ce287a6368","","null","<img   src='G_1.jpg' height='90'> <img   src='G_6.jpg' height='90'> <img id='swapped' src='G_2.jpg' height='90'> <img id='swapped'   src='G_7.jpg' height='90'> <img src='G_3.jpg' height='90'> <img src='G_5.jpg' height='90'> <img src='G_4.jpg' height='90'> <img src='G_8.jpg' height='90'>","null","Animation1",""
"","","","","","html-keyboard-response","96","356811","0.0-62.0","35","1","2025-01-25 16:34:28","af8d355d56820e421d246a7037deb6e6","69.14.97.166","Mozilla/5.0 (Windows NT 10.0; Win64; x64) AppleWebKit/537.36 (KHTML, like Gecko) Chrome/131.0.0.0 Safari/537.36","WebKit","Chrome","131.0.0.0","Windows","10.0","https://app.prolific.com/","en-US,en;q=0.9","65610d3b7a06953204bbbb62","67949641171f97c04e14fb34","67951289add3d4ce287a6368","","null","<img   src='G_1.jpg' height='90'> <img   src='G_6.jpg' height='90'> <img  src='G_2.jpg' height='90'> <img    src='G_7.jpg' height='90'> <img src='G_3.jpg' height='90'> <img src='G_5.jpg' height='90'> <img src='G_4.jpg' height='90'> <img src='G_8.jpg' height='90'>","null","Animation1",""
"","","","","","html-keyboard-response","97","357340","0.0-63.0","35","1","2025-01-25 16:34:28","af8d355d56820e421d246a7037deb6e6","69.14.97.166","Mozilla/5.0 (Windows NT 10.0; Win64; x64) AppleWebKit/537.36 (KHTML, like Gecko) Chrome/131.0.0.0 Safari/537.36","WebKit","Chrome","131.0.0.0","Windows","10.0","https://app.prolific.com/","en-US,en;q=0.9","65610d3b7a06953204bbbb62","67949641171f97c04e14fb34","67951289add3d4ce287a6368","","null","<img   src='G_1.jpg' height='90'> <img id='selected'   src='G_6.jpg' height='90'> <img  src='G_2.jpg' height='90'> <img    src='G_7.jpg' height='90'> <img src='G_3.jpg' height='90'> <img src='G_5.jpg' height='90'> <img src='G_4.jpg' height='90'> <img src='G_8.jpg' height='90'>","null","Animation1",""
"","","","","","html-keyboard-response","98","357869","0.0-64.0","35","1","2025-01-25 16:34:28","af8d355d56820e421d246a7037deb6e6","69.14.97.166","Mozilla/5.0 (Windows NT 10.0; Win64; x64) AppleWebKit/537.36 (KHTML, like Gecko) Chrome/131.0.0.0 Safari/537.36","WebKit","Chrome","131.0.0.0","Windows","10.0","https://app.prolific.com/","en-US,en;q=0.9","65610d3b7a06953204bbbb62","67949641171f97c04e14fb34","67951289add3d4ce287a6368","","null","<img   src='G_1.jpg' height='90'> <img id='selected'   src='G_6.jpg' height='90'> <img id='selected'  src='G_2.jpg' height='90'> <img    src='G_7.jpg' height='90'> <img src='G_3.jpg' height='90'> <img src='G_5.jpg' height='90'> <img src='G_4.jpg' height='90'> <img src='G_8.jpg' height='90'>","null","Animation1",""
"","","","","","html-keyboard-response","99","358396","0.0-65.0","35","1","2025-01-25 16:34:28","af8d355d56820e421d246a7037deb6e6","69.14.97.166","Mozilla/5.0 (Windows NT 10.0; Win64; x64) AppleWebKit/537.36 (KHTML, like Gecko) Chrome/131.0.0.0 Safari/537.36","WebKit","Chrome","131.0.0.0","Windows","10.0","https://app.prolific.com/","en-US,en;q=0.9","65610d3b7a06953204bbbb62","67949641171f97c04e14fb34","67951289add3d4ce287a6368","","null","<img   src='G_1.jpg' height='90'> <img id='swapped'  src='G_2.jpg' height='90'> <img id='swapped'   src='G_6.jpg' height='90'> <img    src='G_7.jpg' height='90'> <img src='G_3.jpg' height='90'> <img src='G_5.jpg' height='90'> <img src='G_4.jpg' height='90'> <img src='G_8.jpg' height='90'>","null","Animation1",""
"","","","","","html-keyboard-response","100","358723","0.0-66.0","35","1","2025-01-25 16:34:28","af8d355d56820e421d246a7037deb6e6","69.14.97.166","Mozilla/5.0 (Windows NT 10.0; Win64; x64) AppleWebKit/537.36 (KHTML, like Gecko) Chrome/131.0.0.0 Safari/537.36","WebKit","Chrome","131.0.0.0","Windows","10.0","https://app.prolific.com/","en-US,en;q=0.9","65610d3b7a06953204bbbb62","67949641171f97c04e14fb34","67951289add3d4ce287a6368","","null","<img   src='G_1.jpg' height='90'> <img   src='G_2.jpg' height='90'> <img    src='G_6.jpg' height='90'> <img    src='G_7.jpg' height='90'> <img src='G_3.jpg' height='90'> <img src='G_5.jpg' height='90'> <img src='G_4.jpg' height='90'> <img src='G_8.jpg' height='90'>","null","Animation1",""
"","","","","","html-keyboard-response","101","359233","0.0-67.0","35","1","2025-01-25 16:34:28","af8d355d56820e421d246a7037deb6e6","69.14.97.166","Mozilla/5.0 (Windows NT 10.0; Win64; x64) AppleWebKit/537.36 (KHTML, like Gecko) Chrome/131.0.0.0 Safari/537.36","WebKit","Chrome","131.0.0.0","Windows","10.0","https://app.prolific.com/","en-US,en;q=0.9","65610d3b7a06953204bbbb62","67949641171f97c04e14fb34","67951289add3d4ce287a6368","","null","<img id='selected'   src='G_1.jpg' height='90'> <img   src='G_2.jpg' height='90'> <img    src='G_6.jpg' height='90'> <img    src='G_7.jpg' height='90'> <img src='G_3.jpg' height='90'> <img src='G_5.jpg' height='90'> <img src='G_4.jpg' height='90'> <img src='G_8.jpg' height='90'>","null","Animation1",""
"","","","","","html-keyboard-response","102","359751","0.0-68.0","35","1","2025-01-25 16:34:28","af8d355d56820e421d246a7037deb6e6","69.14.97.166","Mozilla/5.0 (Windows NT 10.0; Win64; x64) AppleWebKit/537.36 (KHTML, like Gecko) Chrome/131.0.0.0 Safari/537.36","WebKit","Chrome","131.0.0.0","Windows","10.0","https://app.prolific.com/","en-US,en;q=0.9","65610d3b7a06953204bbbb62","67949641171f97c04e14fb34","67951289add3d4ce287a6368","","null","<img id='selected'   src='G_1.jpg' height='90'> <img id='selected'   src='G_2.jpg' height='90'> <img    src='G_6.jpg' height='90'> <img    src='G_7.jpg' height='90'> <img src='G_3.jpg' height='90'> <img src='G_5.jpg' height='90'> <img src='G_4.jpg' height='90'> <img src='G_8.jpg' height='90'>","null","Animation1",""
"","","","","","html-keyboard-response","103","360277","0.0-69.0","35","1","2025-01-25 16:34:28","af8d355d56820e421d246a7037deb6e6","69.14.97.166","Mozilla/5.0 (Windows NT 10.0; Win64; x64) AppleWebKit/537.36 (KHTML, like Gecko) Chrome/131.0.0.0 Safari/537.36","WebKit","Chrome","131.0.0.0","Windows","10.0","https://app.prolific.com/","en-US,en;q=0.9","65610d3b7a06953204bbbb62","67949641171f97c04e14fb34","67951289add3d4ce287a6368","","null","<img id='swapped'   src='G_2.jpg' height='90'> <img id='swapped'   src='G_1.jpg' height='90'> <img    src='G_6.jpg' height='90'> <img    src='G_7.jpg' height='90'> <img src='G_3.jpg' height='90'> <img src='G_5.jpg' height='90'> <img src='G_4.jpg' height='90'> <img src='G_8.jpg' height='90'>","null","Animation1",""
"","","","","","html-keyboard-response","104","360597","0.0-70.0","35","1","2025-01-25 16:34:28","af8d355d56820e421d246a7037deb6e6","69.14.97.166","Mozilla/5.0 (Windows NT 10.0; Win64; x64) AppleWebKit/537.36 (KHTML, like Gecko) Chrome/131.0.0.0 Safari/537.36","WebKit","Chrome","131.0.0.0","Windows","10.0","https://app.prolific.com/","en-US,en;q=0.9","65610d3b7a06953204bbbb62","67949641171f97c04e14fb34","67951289add3d4ce287a6368","","null","<img    src='G_2.jpg' height='90'> <img    src='G_1.jpg' height='90'> <img    src='G_6.jpg' height='90'> <img    src='G_7.jpg' height='90'> <img src='G_3.jpg' height='90'> <img src='G_5.jpg' height='90'> <img src='G_4.jpg' height='90'> <img src='G_8.jpg' height='90'>","null","Animation1",""
"","","","","","html-keyboard-response","105","361113","0.0-71.0","35","1","2025-01-25 16:34:28","af8d355d56820e421d246a7037deb6e6","69.14.97.166","Mozilla/5.0 (Windows NT 10.0; Win64; x64) AppleWebKit/537.36 (KHTML, like Gecko) Chrome/131.0.0.0 Safari/537.36","WebKit","Chrome","131.0.0.0","Windows","10.0","https://app.prolific.com/","en-US,en;q=0.9","65610d3b7a06953204bbbb62","67949641171f97c04e14fb34","67951289add3d4ce287a6368","","null","<img    src='G_2.jpg' height='90'> <img    src='G_1.jpg' height='90'> <img    src='G_6.jpg' height='90'> <img id='selected'    src='G_7.jpg' height='90'> <img src='G_3.jpg' height='90'> <img src='G_5.jpg' height='90'> <img src='G_4.jpg' height='90'> <img src='G_8.jpg' height='90'>","null","Animation1",""
"","","","","","html-keyboard-response","106","361635","0.0-72.0","35","1","2025-01-25 16:34:28","af8d355d56820e421d246a7037deb6e6","69.14.97.166","Mozilla/5.0 (Windows NT 10.0; Win64; x64) AppleWebKit/537.36 (KHTML, like Gecko) Chrome/131.0.0.0 Safari/537.36","WebKit","Chrome","131.0.0.0","Windows","10.0","https://app.prolific.com/","en-US,en;q=0.9","65610d3b7a06953204bbbb62","67949641171f97c04e14fb34","67951289add3d4ce287a6368","","null","<img    src='G_2.jpg' height='90'> <img    src='G_1.jpg' height='90'> <img    src='G_6.jpg' height='90'> <img id='selected'    src='G_7.jpg' height='90'> <img id='selected' src='G_3.jpg' height='90'> <img src='G_5.jpg' height='90'> <img src='G_4.jpg' height='90'> <img src='G_8.jpg' height='90'>","null","Animation1",""
"","","","","","html-keyboard-response","107","362150","0.0-73.0","35","1","2025-01-25 16:34:28","af8d355d56820e421d246a7037deb6e6","69.14.97.166","Mozilla/5.0 (Windows NT 10.0; Win64; x64) AppleWebKit/537.36 (KHTML, like Gecko) Chrome/131.0.0.0 Safari/537.36","WebKit","Chrome","131.0.0.0","Windows","10.0","https://app.prolific.com/","en-US,en;q=0.9","65610d3b7a06953204bbbb62","67949641171f97c04e14fb34","67951289add3d4ce287a6368","","null","<img    src='G_2.jpg' height='90'> <img    src='G_1.jpg' height='90'> <img    src='G_6.jpg' height='90'> <img id='swapped' src='G_3.jpg' height='90'> <img id='swapped'    src='G_7.jpg' height='90'> <img src='G_5.jpg' height='90'> <img src='G_4.jpg' height='90'> <img src='G_8.jpg' height='90'>","null","Animation1",""
"","","","","","html-keyboard-response","108","362467","0.0-74.0","35","1","2025-01-25 16:34:28","af8d355d56820e421d246a7037deb6e6","69.14.97.166","Mozilla/5.0 (Windows NT 10.0; Win64; x64) AppleWebKit/537.36 (KHTML, like Gecko) Chrome/131.0.0.0 Safari/537.36","WebKit","Chrome","131.0.0.0","Windows","10.0","https://app.prolific.com/","en-US,en;q=0.9","65610d3b7a06953204bbbb62","67949641171f97c04e14fb34","67951289add3d4ce287a6368","","null","<img    src='G_2.jpg' height='90'> <img    src='G_1.jpg' height='90'> <img    src='G_6.jpg' height='90'> <img  src='G_3.jpg' height='90'> <img     src='G_7.jpg' height='90'> <img src='G_5.jpg' height='90'> <img src='G_4.jpg' height='90'> <img src='G_8.jpg' height='90'>","null","Animation1",""
"","","","","","html-keyboard-response","109","362988","0.0-75.0","35","1","2025-01-25 16:34:28","af8d355d56820e421d246a7037deb6e6","69.14.97.166","Mozilla/5.0 (Windows NT 10.0; Win64; x64) AppleWebKit/537.36 (KHTML, like Gecko) Chrome/131.0.0.0 Safari/537.36","WebKit","Chrome","131.0.0.0","Windows","10.0","https://app.prolific.com/","en-US,en;q=0.9","65610d3b7a06953204bbbb62","67949641171f97c04e14fb34","67951289add3d4ce287a6368","","null","<img    src='G_2.jpg' height='90'> <img    src='G_1.jpg' height='90'> <img id='selected'    src='G_6.jpg' height='90'> <img  src='G_3.jpg' height='90'> <img     src='G_7.jpg' height='90'> <img src='G_5.jpg' height='90'> <img src='G_4.jpg' height='90'> <img src='G_8.jpg' height='90'>","null","Animation1",""
"","","","","","html-keyboard-response","110","363507","0.0-76.0","35","1","2025-01-25 16:34:28","af8d355d56820e421d246a7037deb6e6","69.14.97.166","Mozilla/5.0 (Windows NT 10.0; Win64; x64) AppleWebKit/537.36 (KHTML, like Gecko) Chrome/131.0.0.0 Safari/537.36","WebKit","Chrome","131.0.0.0","Windows","10.0","https://app.prolific.com/","en-US,en;q=0.9","65610d3b7a06953204bbbb62","67949641171f97c04e14fb34","67951289add3d4ce287a6368","","null","<img    src='G_2.jpg' height='90'> <img    src='G_1.jpg' height='90'> <img id='selected'    src='G_6.jpg' height='90'> <img id='selected'  src='G_3.jpg' height='90'> <img     src='G_7.jpg' height='90'> <img src='G_5.jpg' height='90'> <img src='G_4.jpg' height='90'> <img src='G_8.jpg' height='90'>","null","Animation1",""
"","","","","","html-keyboard-response","111","364024","0.0-77.0","35","1","2025-01-25 16:34:28","af8d355d56820e421d246a7037deb6e6","69.14.97.166","Mozilla/5.0 (Windows NT 10.0; Win64; x64) AppleWebKit/537.36 (KHTML, like Gecko) Chrome/131.0.0.0 Safari/537.36","WebKit","Chrome","131.0.0.0","Windows","10.0","https://app.prolific.com/","en-US,en;q=0.9","65610d3b7a06953204bbbb62","67949641171f97c04e14fb34","67951289add3d4ce287a6368","","null","<img    src='G_2.jpg' height='90'> <img    src='G_1.jpg' height='90'> <img id='swapped'  src='G_3.jpg' height='90'> <img id='swapped'    src='G_6.jpg' height='90'> <img     src='G_7.jpg' height='90'> <img src='G_5.jpg' height='90'> <img src='G_4.jpg' height='90'> <img src='G_8.jpg' height='90'>","null","Animation1",""
"","","","","","html-keyboard-response","112","364346","0.0-78.0","35","1","2025-01-25 16:34:28","af8d355d56820e421d246a7037deb6e6","69.14.97.166","Mozilla/5.0 (Windows NT 10.0; Win64; x64) AppleWebKit/537.36 (KHTML, like Gecko) Chrome/131.0.0.0 Safari/537.36","WebKit","Chrome","131.0.0.0","Windows","10.0","https://app.prolific.com/","en-US,en;q=0.9","65610d3b7a06953204bbbb62","67949641171f97c04e14fb34","67951289add3d4ce287a6368","","null","<img    src='G_2.jpg' height='90'> <img    src='G_1.jpg' height='90'> <img   src='G_3.jpg' height='90'> <img     src='G_6.jpg' height='90'> <img     src='G_7.jpg' height='90'> <img src='G_5.jpg' height='90'> <img src='G_4.jpg' height='90'> <img src='G_8.jpg' height='90'>","null","Animation1",""
"","","","","","html-keyboard-response","113","364862","0.0-79.0","35","1","2025-01-25 16:34:28","af8d355d56820e421d246a7037deb6e6","69.14.97.166","Mozilla/5.0 (Windows NT 10.0; Win64; x64) AppleWebKit/537.36 (KHTML, like Gecko) Chrome/131.0.0.0 Safari/537.36","WebKit","Chrome","131.0.0.0","Windows","10.0","https://app.prolific.com/","en-US,en;q=0.9","65610d3b7a06953204bbbb62","67949641171f97c04e14fb34","67951289add3d4ce287a6368","","null","<img    src='G_2.jpg' height='90'> <img id='selected'    src='G_1.jpg' height='90'> <img   src='G_3.jpg' height='90'> <img     src='G_6.jpg' height='90'> <img     src='G_7.jpg' height='90'> <img src='G_5.jpg' height='90'> <img src='G_4.jpg' height='90'> <img src='G_8.jpg' height='90'>","null","Animation1",""
"","","","","","html-keyboard-response","114","365388","0.0-80.0","35","1","2025-01-25 16:34:28","af8d355d56820e421d246a7037deb6e6","69.14.97.166","Mozilla/5.0 (Windows NT 10.0; Win64; x64) AppleWebKit/537.36 (KHTML, like Gecko) Chrome/131.0.0.0 Safari/537.36","WebKit","Chrome","131.0.0.0","Windows","10.0","https://app.prolific.com/","en-US,en;q=0.9","65610d3b7a06953204bbbb62","67949641171f97c04e14fb34","67951289add3d4ce287a6368","","null","<img    src='G_2.jpg' height='90'> <img id='selected'    src='G_1.jpg' height='90'> <img id='selected'   src='G_3.jpg' height='90'> <img     src='G_6.jpg' height='90'> <img     src='G_7.jpg' height='90'> <img src='G_5.jpg' height='90'> <img src='G_4.jpg' height='90'> <img src='G_8.jpg' height='90'>","null","Animation1",""
"","","","","","html-keyboard-response","115","365911","0.0-81.0","35","1","2025-01-25 16:34:28","af8d355d56820e421d246a7037deb6e6","69.14.97.166","Mozilla/5.0 (Windows NT 10.0; Win64; x64) AppleWebKit/537.36 (KHTML, like Gecko) Chrome/131.0.0.0 Safari/537.36","WebKit","Chrome","131.0.0.0","Windows","10.0","https://app.prolific.com/","en-US,en;q=0.9","65610d3b7a06953204bbbb62","67949641171f97c04e14fb34","67951289add3d4ce287a6368","","null","<img    src='G_2.jpg' height='90'> <img id='swapped'   src='G_3.jpg' height='90'> <img id='swapped'    src='G_1.jpg' height='90'> <img     src='G_6.jpg' height='90'> <img     src='G_7.jpg' height='90'> <img src='G_5.jpg' height='90'> <img src='G_4.jpg' height='90'> <img src='G_8.jpg' height='90'>","null","Animation1",""
"","","","","","html-keyboard-response","116","366236","0.0-82.0","35","1","2025-01-25 16:34:28","af8d355d56820e421d246a7037deb6e6","69.14.97.166","Mozilla/5.0 (Windows NT 10.0; Win64; x64) AppleWebKit/537.36 (KHTML, like Gecko) Chrome/131.0.0.0 Safari/537.36","WebKit","Chrome","131.0.0.0","Windows","10.0","https://app.prolific.com/","en-US,en;q=0.9","65610d3b7a06953204bbbb62","67949641171f97c04e14fb34","67951289add3d4ce287a6368","","null","<img    src='G_2.jpg' height='90'> <img    src='G_3.jpg' height='90'> <img     src='G_1.jpg' height='90'> <img     src='G_6.jpg' height='90'> <img     src='G_7.jpg' height='90'> <img src='G_5.jpg' height='90'> <img src='G_4.jpg' height='90'> <img src='G_8.jpg' height='90'>","null","Animation1",""
"","","","","","html-keyboard-response","117","366753","0.0-83.0","35","1","2025-01-25 16:34:28","af8d355d56820e421d246a7037deb6e6","69.14.97.166","Mozilla/5.0 (Windows NT 10.0; Win64; x64) AppleWebKit/537.36 (KHTML, like Gecko) Chrome/131.0.0.0 Safari/537.36","WebKit","Chrome","131.0.0.0","Windows","10.0","https://app.prolific.com/","en-US,en;q=0.9","65610d3b7a06953204bbbb62","67949641171f97c04e14fb34","67951289add3d4ce287a6368","","null","<img id='selected'    src='G_2.jpg' height='90'> <img    src='G_3.jpg' height='90'> <img     src='G_1.jpg' height='90'> <img     src='G_6.jpg' height='90'> <img     src='G_7.jpg' height='90'> <img src='G_5.jpg' height='90'> <img src='G_4.jpg' height='90'> <img src='G_8.jpg' height='90'>","null","Animation1",""
"","","","","","html-keyboard-response","118","367282","0.0-84.0","35","1","2025-01-25 16:34:28","af8d355d56820e421d246a7037deb6e6","69.14.97.166","Mozilla/5.0 (Windows NT 10.0; Win64; x64) AppleWebKit/537.36 (KHTML, like Gecko) Chrome/131.0.0.0 Safari/537.36","WebKit","Chrome","131.0.0.0","Windows","10.0","https://app.prolific.com/","en-US,en;q=0.9","65610d3b7a06953204bbbb62","67949641171f97c04e14fb34","67951289add3d4ce287a6368","","null","<img id='selected'    src='G_2.jpg' height='90'> <img id='selected'    src='G_3.jpg' height='90'> <img     src='G_1.jpg' height='90'> <img     src='G_6.jpg' height='90'> <img     src='G_7.jpg' height='90'> <img src='G_5.jpg' height='90'> <img src='G_4.jpg' height='90'> <img src='G_8.jpg' height='90'>","null","Animation1",""
"","","","","","html-keyboard-response","119","367801","0.0-85.0","35","1","2025-01-25 16:34:28","af8d355d56820e421d246a7037deb6e6","69.14.97.166","Mozilla/5.0 (Windows NT 10.0; Win64; x64) AppleWebKit/537.36 (KHTML, like Gecko) Chrome/131.0.0.0 Safari/537.36","WebKit","Chrome","131.0.0.0","Windows","10.0","https://app.prolific.com/","en-US,en;q=0.9","65610d3b7a06953204bbbb62","67949641171f97c04e14fb34","67951289add3d4ce287a6368","","null","<img id='selected'    src='G_2.jpg' height='90'> <img id='selected'    src='G_3.jpg' height='90'> <img     src='G_1.jpg' height='90'> <img     src='G_6.jpg' height='90'> <img     src='G_7.jpg' height='90'> <img src='G_5.jpg' height='90'> <img src='G_4.jpg' height='90'> <img src='G_8.jpg' height='90'>","null","Animation1",""
"","","","","","html-keyboard-response","120","368125","0.0-86.0","35","1","2025-01-25 16:34:28","af8d355d56820e421d246a7037deb6e6","69.14.97.166","Mozilla/5.0 (Windows NT 10.0; Win64; x64) AppleWebKit/537.36 (KHTML, like Gecko) Chrome/131.0.0.0 Safari/537.36","WebKit","Chrome","131.0.0.0","Windows","10.0","https://app.prolific.com/","en-US,en;q=0.9","65610d3b7a06953204bbbb62","67949641171f97c04e14fb34","67951289add3d4ce287a6368","","null","<img     src='G_2.jpg' height='90'> <img     src='G_3.jpg' height='90'> <img     src='G_1.jpg' height='90'> <img     src='G_6.jpg' height='90'> <img     src='G_7.jpg' height='90'> <img src='G_5.jpg' height='90'> <img src='G_4.jpg' height='90'> <img src='G_8.jpg' height='90'>","null","Animation1",""
"","","","","","html-keyboard-response","121","368641","0.0-87.0","35","1","2025-01-25 16:34:28","af8d355d56820e421d246a7037deb6e6","69.14.97.166","Mozilla/5.0 (Windows NT 10.0; Win64; x64) AppleWebKit/537.36 (KHTML, like Gecko) Chrome/131.0.0.0 Safari/537.36","WebKit","Chrome","131.0.0.0","Windows","10.0","https://app.prolific.com/","en-US,en;q=0.9","65610d3b7a06953204bbbb62","67949641171f97c04e14fb34","67951289add3d4ce287a6368","","null","<img     src='G_2.jpg' height='90'> <img     src='G_3.jpg' height='90'> <img     src='G_1.jpg' height='90'> <img     src='G_6.jpg' height='90'> <img id='selected'     src='G_7.jpg' height='90'> <img src='G_5.jpg' height='90'> <img src='G_4.jpg' height='90'> <img src='G_8.jpg' height='90'>","null","Animation1",""
"","","","","","html-keyboard-response","122","369179","0.0-88.0","35","1","2025-01-25 16:34:28","af8d355d56820e421d246a7037deb6e6","69.14.97.166","Mozilla/5.0 (Windows NT 10.0; Win64; x64) AppleWebKit/537.36 (KHTML, like Gecko) Chrome/131.0.0.0 Safari/537.36","WebKit","Chrome","131.0.0.0","Windows","10.0","https://app.prolific.com/","en-US,en;q=0.9","65610d3b7a06953204bbbb62","67949641171f97c04e14fb34","67951289add3d4ce287a6368","","null","<img     src='G_2.jpg' height='90'> <img     src='G_3.jpg' height='90'> <img     src='G_1.jpg' height='90'> <img     src='G_6.jpg' height='90'> <img id='selected'     src='G_7.jpg' height='90'> <img id='selected' src='G_5.jpg' height='90'> <img src='G_4.jpg' height='90'> <img src='G_8.jpg' height='90'>","null","Animation1",""
"","","","","","html-keyboard-response","123","369709","0.0-89.0","35","1","2025-01-25 16:34:28","af8d355d56820e421d246a7037deb6e6","69.14.97.166","Mozilla/5.0 (Windows NT 10.0; Win64; x64) AppleWebKit/537.36 (KHTML, like Gecko) Chrome/131.0.0.0 Safari/537.36","WebKit","Chrome","131.0.0.0","Windows","10.0","https://app.prolific.com/","en-US,en;q=0.9","65610d3b7a06953204bbbb62","67949641171f97c04e14fb34","67951289add3d4ce287a6368","","null","<img     src='G_2.jpg' height='90'> <img     src='G_3.jpg' height='90'> <img     src='G_1.jpg' height='90'> <img     src='G_6.jpg' height='90'> <img id='swapped' src='G_5.jpg' height='90'> <img id='swapped'     src='G_7.jpg' height='90'> <img src='G_4.jpg' height='90'> <img src='G_8.jpg' height='90'>","null","Animation1",""
"","","","","","html-keyboard-response","124","370038","0.0-90.0","35","1","2025-01-25 16:34:28","af8d355d56820e421d246a7037deb6e6","69.14.97.166","Mozilla/5.0 (Windows NT 10.0; Win64; x64) AppleWebKit/537.36 (KHTML, like Gecko) Chrome/131.0.0.0 Safari/537.36","WebKit","Chrome","131.0.0.0","Windows","10.0","https://app.prolific.com/","en-US,en;q=0.9","65610d3b7a06953204bbbb62","67949641171f97c04e14fb34","67951289add3d4ce287a6368","","null","<img     src='G_2.jpg' height='90'> <img     src='G_3.jpg' height='90'> <img     src='G_1.jpg' height='90'> <img     src='G_6.jpg' height='90'> <img  src='G_5.jpg' height='90'> <img      src='G_7.jpg' height='90'> <img src='G_4.jpg' height='90'> <img src='G_8.jpg' height='90'>","null","Animation1",""
"","","","","","html-keyboard-response","125","370556","0.0-91.0","35","1","2025-01-25 16:34:28","af8d355d56820e421d246a7037deb6e6","69.14.97.166","Mozilla/5.0 (Windows NT 10.0; Win64; x64) AppleWebKit/537.36 (KHTML, like Gecko) Chrome/131.0.0.0 Safari/537.36","WebKit","Chrome","131.0.0.0","Windows","10.0","https://app.prolific.com/","en-US,en;q=0.9","65610d3b7a06953204bbbb62","67949641171f97c04e14fb34","67951289add3d4ce287a6368","","null","<img     src='G_2.jpg' height='90'> <img     src='G_3.jpg' height='90'> <img     src='G_1.jpg' height='90'> <img id='selected'     src='G_6.jpg' height='90'> <img  src='G_5.jpg' height='90'> <img      src='G_7.jpg' height='90'> <img src='G_4.jpg' height='90'> <img src='G_8.jpg' height='90'>","null","Animation1",""
"","","","","","html-keyboard-response","126","371074","0.0-92.0","35","1","2025-01-25 16:34:28","af8d355d56820e421d246a7037deb6e6","69.14.97.166","Mozilla/5.0 (Windows NT 10.0; Win64; x64) AppleWebKit/537.36 (KHTML, like Gecko) Chrome/131.0.0.0 Safari/537.36","WebKit","Chrome","131.0.0.0","Windows","10.0","https://app.prolific.com/","en-US,en;q=0.9","65610d3b7a06953204bbbb62","67949641171f97c04e14fb34","67951289add3d4ce287a6368","","null","<img     src='G_2.jpg' height='90'> <img     src='G_3.jpg' height='90'> <img     src='G_1.jpg' height='90'> <img id='selected'     src='G_6.jpg' height='90'> <img id='selected'  src='G_5.jpg' height='90'> <img      src='G_7.jpg' height='90'> <img src='G_4.jpg' height='90'> <img src='G_8.jpg' height='90'>","null","Animation1",""
"","","","","","html-keyboard-response","127","371593","0.0-93.0","35","1","2025-01-25 16:34:28","af8d355d56820e421d246a7037deb6e6","69.14.97.166","Mozilla/5.0 (Windows NT 10.0; Win64; x64) AppleWebKit/537.36 (KHTML, like Gecko) Chrome/131.0.0.0 Safari/537.36","WebKit","Chrome","131.0.0.0","Windows","10.0","https://app.prolific.com/","en-US,en;q=0.9","65610d3b7a06953204bbbb62","67949641171f97c04e14fb34","67951289add3d4ce287a6368","","null","<img     src='G_2.jpg' height='90'> <img     src='G_3.jpg' height='90'> <img     src='G_1.jpg' height='90'> <img id='selected'     src='G_6.jpg' height='90'> <img id='selected'  src='G_5.jpg' height='90'> <img      src='G_7.jpg' height='90'> <img src='G_4.jpg' height='90'> <img src='G_8.jpg' height='90'>","null","Animation1",""
"","","","","","html-keyboard-response","128","371918","0.0-94.0","35","1","2025-01-25 16:34:28","af8d355d56820e421d246a7037deb6e6","69.14.97.166","Mozilla/5.0 (Windows NT 10.0; Win64; x64) AppleWebKit/537.36 (KHTML, like Gecko) Chrome/131.0.0.0 Safari/537.36","WebKit","Chrome","131.0.0.0","Windows","10.0","https://app.prolific.com/","en-US,en;q=0.9","65610d3b7a06953204bbbb62","67949641171f97c04e14fb34","67951289add3d4ce287a6368","","null","<img     src='G_2.jpg' height='90'> <img     src='G_3.jpg' height='90'> <img     src='G_1.jpg' height='90'> <img      src='G_6.jpg' height='90'> <img   src='G_5.jpg' height='90'> <img      src='G_7.jpg' height='90'> <img src='G_4.jpg' height='90'> <img src='G_8.jpg' height='90'>","null","Animation1",""
"","","","","","html-keyboard-response","129","372440","0.0-95.0","35","1","2025-01-25 16:34:28","af8d355d56820e421d246a7037deb6e6","69.14.97.166","Mozilla/5.0 (Windows NT 10.0; Win64; x64) AppleWebKit/537.36 (KHTML, like Gecko) Chrome/131.0.0.0 Safari/537.36","WebKit","Chrome","131.0.0.0","Windows","10.0","https://app.prolific.com/","en-US,en;q=0.9","65610d3b7a06953204bbbb62","67949641171f97c04e14fb34","67951289add3d4ce287a6368","","null","<img     src='G_2.jpg' height='90'> <img     src='G_3.jpg' height='90'> <img     src='G_1.jpg' height='90'> <img      src='G_6.jpg' height='90'> <img   src='G_5.jpg' height='90'> <img id='selected'      src='G_7.jpg' height='90'> <img src='G_4.jpg' height='90'> <img src='G_8.jpg' height='90'>","null","Animation1",""
"","","","","","html-keyboard-response","130","372967","0.0-96.0","35","1","2025-01-25 16:34:28","af8d355d56820e421d246a7037deb6e6","69.14.97.166","Mozilla/5.0 (Windows NT 10.0; Win64; x64) AppleWebKit/537.36 (KHTML, like Gecko) Chrome/131.0.0.0 Safari/537.36","WebKit","Chrome","131.0.0.0","Windows","10.0","https://app.prolific.com/","en-US,en;q=0.9","65610d3b7a06953204bbbb62","67949641171f97c04e14fb34","67951289add3d4ce287a6368","","null","<img     src='G_2.jpg' height='90'> <img     src='G_3.jpg' height='90'> <img     src='G_1.jpg' height='90'> <img      src='G_6.jpg' height='90'> <img   src='G_5.jpg' height='90'> <img id='selected'      src='G_7.jpg' height='90'> <img id='selected' src='G_4.jpg' height='90'> <img src='G_8.jpg' height='90'>","null","Animation1",""
"","","","","","html-keyboard-response","131","373491","0.0-97.0","35","1","2025-01-25 16:34:28","af8d355d56820e421d246a7037deb6e6","69.14.97.166","Mozilla/5.0 (Windows NT 10.0; Win64; x64) AppleWebKit/537.36 (KHTML, like Gecko) Chrome/131.0.0.0 Safari/537.36","WebKit","Chrome","131.0.0.0","Windows","10.0","https://app.prolific.com/","en-US,en;q=0.9","65610d3b7a06953204bbbb62","67949641171f97c04e14fb34","67951289add3d4ce287a6368","","null","<img     src='G_2.jpg' height='90'> <img     src='G_3.jpg' height='90'> <img     src='G_1.jpg' height='90'> <img      src='G_6.jpg' height='90'> <img   src='G_5.jpg' height='90'> <img id='selected'      src='G_7.jpg' height='90'> <img id='selected' src='G_4.jpg' height='90'> <img src='G_8.jpg' height='90'>","null","Animation1",""
"","","","","","html-keyboard-response","132","373820","0.0-98.0","35","1","2025-01-25 16:34:28","af8d355d56820e421d246a7037deb6e6","69.14.97.166","Mozilla/5.0 (Windows NT 10.0; Win64; x64) AppleWebKit/537.36 (KHTML, like Gecko) Chrome/131.0.0.0 Safari/537.36","WebKit","Chrome","131.0.0.0","Windows","10.0","https://app.prolific.com/","en-US,en;q=0.9","65610d3b7a06953204bbbb62","67949641171f97c04e14fb34","67951289add3d4ce287a6368","","null","<img     src='G_2.jpg' height='90'> <img     src='G_3.jpg' height='90'> <img     src='G_1.jpg' height='90'> <img      src='G_6.jpg' height='90'> <img   src='G_5.jpg' height='90'> <img       src='G_7.jpg' height='90'> <img  src='G_4.jpg' height='90'> <img src='G_8.jpg' height='90'>","null","Animation1",""
"","","","","","html-keyboard-response","133","374339","0.0-99.0","35","1","2025-01-25 16:34:28","af8d355d56820e421d246a7037deb6e6","69.14.97.166","Mozilla/5.0 (Windows NT 10.0; Win64; x64) AppleWebKit/537.36 (KHTML, like Gecko) Chrome/131.0.0.0 Safari/537.36","WebKit","Chrome","131.0.0.0","Windows","10.0","https://app.prolific.com/","en-US,en;q=0.9","65610d3b7a06953204bbbb62","67949641171f97c04e14fb34","67951289add3d4ce287a6368","","null","<img     src='G_2.jpg' height='90'> <img     src='G_3.jpg' height='90'> <img     src='G_1.jpg' height='90'> <img      src='G_6.jpg' height='90'> <img   src='G_5.jpg' height='90'> <img       src='G_7.jpg' height='90'> <img id='selected'  src='G_4.jpg' height='90'> <img src='G_8.jpg' height='90'>","null","Animation1",""
"","","","","","html-keyboard-response","134","374863","0.0-100.0","35","1","2025-01-25 16:34:28","af8d355d56820e421d246a7037deb6e6","69.14.97.166","Mozilla/5.0 (Windows NT 10.0; Win64; x64) AppleWebKit/537.36 (KHTML, like Gecko) Chrome/131.0.0.0 Safari/537.36","WebKit","Chrome","131.0.0.0","Windows","10.0","https://app.prolific.com/","en-US,en;q=0.9","65610d3b7a06953204bbbb62","67949641171f97c04e14fb34","67951289add3d4ce287a6368","","null","<img     src='G_2.jpg' height='90'> <img     src='G_3.jpg' height='90'> <img     src='G_1.jpg' height='90'> <img      src='G_6.jpg' height='90'> <img   src='G_5.jpg' height='90'> <img       src='G_7.jpg' height='90'> <img id='selected'  src='G_4.jpg' height='90'> <img id='selected' src='G_8.jpg' height='90'>","null","Animation1",""
"","","","","","html-keyboard-response","135","375394","0.0-101.0","35","1","2025-01-25 16:34:28","af8d355d56820e421d246a7037deb6e6","69.14.97.166","Mozilla/5.0 (Windows NT 10.0; Win64; x64) AppleWebKit/537.36 (KHTML, like Gecko) Chrome/131.0.0.0 Safari/537.36","WebKit","Chrome","131.0.0.0","Windows","10.0","https://app.prolific.com/","en-US,en;q=0.9","65610d3b7a06953204bbbb62","67949641171f97c04e14fb34","67951289add3d4ce287a6368","","null","<img     src='G_2.jpg' height='90'> <img     src='G_3.jpg' height='90'> <img     src='G_1.jpg' height='90'> <img      src='G_6.jpg' height='90'> <img   src='G_5.jpg' height='90'> <img       src='G_7.jpg' height='90'> <img id='swapped' src='G_8.jpg' height='90'> <img id='swapped'  src='G_4.jpg' height='90'>","null","Animation1",""
"","","","","","html-keyboard-response","136","375712","0.0-102.0","35","1","2025-01-25 16:34:28","af8d355d56820e421d246a7037deb6e6","69.14.97.166","Mozilla/5.0 (Windows NT 10.0; Win64; x64) AppleWebKit/537.36 (KHTML, like Gecko) Chrome/131.0.0.0 Safari/537.36","WebKit","Chrome","131.0.0.0","Windows","10.0","https://app.prolific.com/","en-US,en;q=0.9","65610d3b7a06953204bbbb62","67949641171f97c04e14fb34","67951289add3d4ce287a6368","","null","<img     src='G_2.jpg' height='90'> <img     src='G_3.jpg' height='90'> <img     src='G_1.jpg' height='90'> <img      src='G_6.jpg' height='90'> <img   src='G_5.jpg' height='90'> <img       src='G_7.jpg' height='90'> <img  src='G_8.jpg' height='90'> <img   src='G_4.jpg' height='90'>","null","Animation1",""
"","","","","","html-keyboard-response","137","376229","0.0-103.0","35","1","2025-01-25 16:34:28","af8d355d56820e421d246a7037deb6e6","69.14.97.166","Mozilla/5.0 (Windows NT 10.0; Win64; x64) AppleWebKit/537.36 (KHTML, like Gecko) Chrome/131.0.0.0 Safari/537.36","WebKit","Chrome","131.0.0.0","Windows","10.0","https://app.prolific.com/","en-US,en;q=0.9","65610d3b7a06953204bbbb62","67949641171f97c04e14fb34","67951289add3d4ce287a6368","","null","<img     src='G_2.jpg' height='90'> <img     src='G_3.jpg' height='90'> <img     src='G_1.jpg' height='90'> <img      src='G_6.jpg' height='90'> <img   src='G_5.jpg' height='90'> <img id='selected'       src='G_7.jpg' height='90'> <img  src='G_8.jpg' height='90'> <img   src='G_4.jpg' height='90'>","null","Animation1",""
"","","","","","html-keyboard-response","138","376752","0.0-104.0","35","1","2025-01-25 16:34:28","af8d355d56820e421d246a7037deb6e6","69.14.97.166","Mozilla/5.0 (Windows NT 10.0; Win64; x64) AppleWebKit/537.36 (KHTML, like Gecko) Chrome/131.0.0.0 Safari/537.36","WebKit","Chrome","131.0.0.0","Windows","10.0","https://app.prolific.com/","en-US,en;q=0.9","65610d3b7a06953204bbbb62","67949641171f97c04e14fb34","67951289add3d4ce287a6368","","null","<img     src='G_2.jpg' height='90'> <img     src='G_3.jpg' height='90'> <img     src='G_1.jpg' height='90'> <img      src='G_6.jpg' height='90'> <img   src='G_5.jpg' height='90'> <img id='selected'       src='G_7.jpg' height='90'> <img id='selected'  src='G_8.jpg' height='90'> <img   src='G_4.jpg' height='90'>","null","Animation1",""
"","","","","","html-keyboard-response","139","377273","0.0-105.0","35","1","2025-01-25 16:34:28","af8d355d56820e421d246a7037deb6e6","69.14.97.166","Mozilla/5.0 (Windows NT 10.0; Win64; x64) AppleWebKit/537.36 (KHTML, like Gecko) Chrome/131.0.0.0 Safari/537.36","WebKit","Chrome","131.0.0.0","Windows","10.0","https://app.prolific.com/","en-US,en;q=0.9","65610d3b7a06953204bbbb62","67949641171f97c04e14fb34","67951289add3d4ce287a6368","","null","<img     src='G_2.jpg' height='90'> <img     src='G_3.jpg' height='90'> <img     src='G_1.jpg' height='90'> <img      src='G_6.jpg' height='90'> <img   src='G_5.jpg' height='90'> <img id='selected'       src='G_7.jpg' height='90'> <img id='selected'  src='G_8.jpg' height='90'> <img   src='G_4.jpg' height='90'>","null","Animation1",""
"","","","","","html-keyboard-response","140","377602","0.0-106.0","35","1","2025-01-25 16:34:28","af8d355d56820e421d246a7037deb6e6","69.14.97.166","Mozilla/5.0 (Windows NT 10.0; Win64; x64) AppleWebKit/537.36 (KHTML, like Gecko) Chrome/131.0.0.0 Safari/537.36","WebKit","Chrome","131.0.0.0","Windows","10.0","https://app.prolific.com/","en-US,en;q=0.9","65610d3b7a06953204bbbb62","67949641171f97c04e14fb34","67951289add3d4ce287a6368","","null","<img     src='G_2.jpg' height='90'> <img     src='G_3.jpg' height='90'> <img     src='G_1.jpg' height='90'> <img      src='G_6.jpg' height='90'> <img   src='G_5.jpg' height='90'> <img        src='G_7.jpg' height='90'> <img   src='G_8.jpg' height='90'> <img   src='G_4.jpg' height='90'>","null","Animation1",""
"","","","","","html-keyboard-response","141","382454","0.0-107.0","35","1","2025-01-25 16:34:28","af8d355d56820e421d246a7037deb6e6","69.14.97.166","Mozilla/5.0 (Windows NT 10.0; Win64; x64) AppleWebKit/537.36 (KHTML, like Gecko) Chrome/131.0.0.0 Safari/537.36","WebKit","Chrome","131.0.0.0","Windows","10.0","https://app.prolific.com/","en-US,en;q=0.9","65610d3b7a06953204bbbb62","67949641171f97c04e14fb34","67951289add3d4ce287a6368","","4837","[""Did you notice any patterns? <br><br>Press Enter to watch that example again and follow the steps of Omgne Sort.""]","enter","",""
"","","","","","html-button-response","142","382878","0.0-108.0","35","1","2025-01-25 16:34:28","af8d355d56820e421d246a7037deb6e6","69.14.97.166","Mozilla/5.0 (Windows NT 10.0; Win64; x64) AppleWebKit/537.36 (KHTML, like Gecko) Chrome/131.0.0.0 Safari/537.36","WebKit","Chrome","131.0.0.0","Windows","10.0","https://app.prolific.com/","en-US,en;q=0.9","65610d3b7a06953204bbbb62","67949641171f97c04e14fb34","67951289add3d4ce287a6368","","null","<img id='selected' src='G_6.jpg' height='90'> <img src='G_7.jpg' height='90'> <img src='G_1.jpg' height='90'> <img src='G_2.jpg' height='90'> <img src='G_3.jpg' height='90'> <img src='G_5.jpg' height='90'> <img src='G_4.jpg' height='90'> <img src='G_8.jpg' height='90'>","null","Learning example 1",""
"","","","","","html-button-response","143","383208","0.0-109.0","35","1","2025-01-25 16:34:28","af8d355d56820e421d246a7037deb6e6","69.14.97.166","Mozilla/5.0 (Windows NT 10.0; Win64; x64) AppleWebKit/537.36 (KHTML, like Gecko) Chrome/131.0.0.0 Safari/537.36","WebKit","Chrome","131.0.0.0","Windows","10.0","https://app.prolific.com/","en-US,en;q=0.9","65610d3b7a06953204bbbb62","67949641171f97c04e14fb34","67951289add3d4ce287a6368","","null","<img id='selected' src='G_6.jpg' height='90'> <img id='selected' src='G_7.jpg' height='90'> <img src='G_1.jpg' height='90'> <img src='G_2.jpg' height='90'> <img src='G_3.jpg' height='90'> <img src='G_5.jpg' height='90'> <img src='G_4.jpg' height='90'> <img src='G_8.jpg' height='90'>","null","Learning example 1",""
"","","","","","html-button-response","144","383534","0.0-110.0","35","1","2025-01-25 16:34:28","af8d355d56820e421d246a7037deb6e6","69.14.97.166","Mozilla/5.0 (Windows NT 10.0; Win64; x64) AppleWebKit/537.36 (KHTML, like Gecko) Chrome/131.0.0.0 Safari/537.36","WebKit","Chrome","131.0.0.0","Windows","10.0","https://app.prolific.com/","en-US,en;q=0.9","65610d3b7a06953204bbbb62","67949641171f97c04e14fb34","67951289add3d4ce287a6368","","null","<img id='selected' src='G_6.jpg' height='90'> <img id='selected' src='G_7.jpg' height='90'> <img src='G_1.jpg' height='90'> <img src='G_2.jpg' height='90'> <img src='G_3.jpg' height='90'> <img src='G_5.jpg' height='90'> <img src='G_4.jpg' height='90'> <img src='G_8.jpg' height='90'>","null","Learning example 1",""
"","","","","","html-button-response","145","385103","0.0-111.0-0.0-0.0","35","1","2025-01-25 16:34:28","af8d355d56820e421d246a7037deb6e6","69.14.97.166","Mozilla/5.0 (Windows NT 10.0; Win64; x64) AppleWebKit/537.36 (KHTML, like Gecko) Chrome/131.0.0.0 Safari/537.36","WebKit","Chrome","131.0.0.0","Windows","10.0","https://app.prolific.com/","en-US,en;q=0.9","65610d3b7a06953204bbbb62","67949641171f97c04e14fb34","67951289add3d4ce287a6368","","1551","<img id='selected' src='G_6.jpg' height='90'> <img id='selected' src='G_7.jpg' height='90'> <img src='G_1.jpg' height='90'> <img src='G_2.jpg' height='90'> <img src='G_3.jpg' height='90'> <img src='G_5.jpg' height='90'> <img src='G_4.jpg' height='90'> <img src='G_8.jpg' height='90'>","0","Learning example 1",""
"","","","","","html-button-response","146","385571","0.0-111.1-0.1-0.1","35","1","2025-01-25 16:34:28","af8d355d56820e421d246a7037deb6e6","69.14.97.166","Mozilla/5.0 (Windows NT 10.0; Win64; x64) AppleWebKit/537.36 (KHTML, like Gecko) Chrome/131.0.0.0 Safari/537.36","WebKit","Chrome","131.0.0.0","Windows","10.0","https://app.prolific.com/","en-US,en;q=0.9","65610d3b7a06953204bbbb62","67949641171f97c04e14fb34","67951289add3d4ce287a6368","","452","<img id='selected' src='G_6.jpg' height='90'> <img id='selected' src='G_7.jpg' height='90'> <img src='G_1.jpg' height='90'> <img src='G_2.jpg' height='90'> <img src='G_3.jpg' height='90'> <img src='G_5.jpg' height='90'> <img src='G_4.jpg' height='90'> <img src='G_8.jpg' height='90'>","1","Learning example 1",""
"","","","","","html-button-response","147","385797","0.0-112.0","35","1","2025-01-25 16:34:28","af8d355d56820e421d246a7037deb6e6","69.14.97.166","Mozilla/5.0 (Windows NT 10.0; Win64; x64) AppleWebKit/537.36 (KHTML, like Gecko) Chrome/131.0.0.0 Safari/537.36","WebKit","Chrome","131.0.0.0","Windows","10.0","https://app.prolific.com/","en-US,en;q=0.9","65610d3b7a06953204bbbb62","67949641171f97c04e14fb34","67951289add3d4ce287a6368","","null","<img  src='G_6.jpg' height='90'> <img  src='G_7.jpg' height='90'> <img src='G_1.jpg' height='90'> <img src='G_2.jpg' height='90'> <img src='G_3.jpg' height='90'> <img src='G_5.jpg' height='90'> <img src='G_4.jpg' height='90'> <img src='G_8.jpg' height='90'>","null","Learning example 1",""
"","","","","","html-button-response","148","386226","0.0-113.0","35","1","2025-01-25 16:34:28","af8d355d56820e421d246a7037deb6e6","69.14.97.166","Mozilla/5.0 (Windows NT 10.0; Win64; x64) AppleWebKit/537.36 (KHTML, like Gecko) Chrome/131.0.0.0 Safari/537.36","WebKit","Chrome","131.0.0.0","Windows","10.0","https://app.prolific.com/","en-US,en;q=0.9","65610d3b7a06953204bbbb62","67949641171f97c04e14fb34","67951289add3d4ce287a6368","","null","<img  src='G_6.jpg' height='90'> <img id='selected'  src='G_7.jpg' height='90'> <img src='G_1.jpg' height='90'> <img src='G_2.jpg' height='90'> <img src='G_3.jpg' height='90'> <img src='G_5.jpg' height='90'> <img src='G_4.jpg' height='90'> <img src='G_8.jpg' height='90'>","null","Learning example 1",""
"","","","","","html-button-response","149","386555","0.0-114.0","35","1","2025-01-25 16:34:28","af8d355d56820e421d246a7037deb6e6","69.14.97.166","Mozilla/5.0 (Windows NT 10.0; Win64; x64) AppleWebKit/537.36 (KHTML, like Gecko) Chrome/131.0.0.0 Safari/537.36","WebKit","Chrome","131.0.0.0","Windows","10.0","https://app.prolific.com/","en-US,en;q=0.9","65610d3b7a06953204bbbb62","67949641171f97c04e14fb34","67951289add3d4ce287a6368","","null","<img  src='G_6.jpg' height='90'> <img id='selected'  src='G_7.jpg' height='90'> <img id='selected' src='G_1.jpg' height='90'> <img src='G_2.jpg' height='90'> <img src='G_3.jpg' height='90'> <img src='G_5.jpg' height='90'> <img src='G_4.jpg' height='90'> <img src='G_8.jpg' height='90'>","null","Learning example 1",""
