"success","timeout","failed_images","failed_audio","failed_video","trial_type","trial_index","time_elapsed","internal_node_id","run_id","condition","recorded_at","source_code_version","ip","user_agent","device","browser","browser_version","platform","platform_version","referer","accept_language","PROLIFIC_PID","STUDY_ID","SESSION_ID","view_history","rt","stimulus","response","phase","question_order"
"true","false","[]","[]","[]","preload","0","4912","0.0-0.0","36","1","2025-01-25 16:35:38","af8d355d56820e421d246a7037deb6e6","88.209.235.181","Mozilla/5.0 (Windows NT 10.0; Win64; x64) AppleWebKit/537.36 (KHTML, like Gecko) Chrome/129.0.0.0 Safari/537.36","WebKit","Chrome","129.0.0.0","Windows","10.0","https://app.prolific.com/","en,en-US;q=0.9","677527596d51edae18442b1e","67949641171f97c04e14fb34","679512ccd1199325cc883497","","","","","",""
"","","","","","instructions","1","17855","0.0-1.0","36","1","2025-01-25 16:35:38","af8d355d56820e421d246a7037deb6e6","88.209.235.181","Mozilla/5.0 (Windows NT 10.0; Win64; x64) AppleWebKit/537.36 (KHTML, like Gecko) Chrome/129.0.0.0 Safari/537.36","WebKit","Chrome","129.0.0.0","Windows","10.0","https://app.prolific.com/","en,en-US;q=0.9","677527596d51edae18442b1e","67949641171f97c04e14fb34","679512ccd1199325cc883497","[{""page_index"":0,""viewing_time"":12938}]","12938","","","",""
"","","","","","html-keyboard-response","2","18360","0.0-2.0","36","1","2025-01-25 16:35:38","af8d355d56820e421d246a7037deb6e6","88.209.235.181","Mozilla/5.0 (Windows NT 10.0; Win64; x64) AppleWebKit/537.36 (KHTML, like Gecko) Chrome/129.0.0.0 Safari/537.36","WebKit","Chrome","129.0.0.0","Windows","10.0","https://app.prolific.com/","en,en-US;q=0.9","677527596d51edae18442b1e","67949641171f97c04e14fb34","679512ccd1199325cc883497","","null","<p> + <p/>","null","",""
"","","","","","instructions","3","92606","0.0-3.0","36","1","2025-01-25 16:35:38","af8d355d56820e421d246a7037deb6e6","88.209.235.181","Mozilla/5.0 (Windows NT 10.0; Win64; x64) AppleWebKit/537.36 (KHTML, like Gecko) Chrome/129.0.0.0 Safari/537.36","WebKit","Chrome","129.0.0.0","Windows","10.0","https://app.prolific.com/","en,en-US;q=0.9","677527596d51edae18442b1e","67949641171f97c04e14fb34","679512ccd1199325cc883497","[{""page_index"":0,""viewing_time"":3110},{""page_index"":1,""viewing_time"":7368},{""page_index"":2,""viewing_time"":38888},{""page_index"":3,""viewing_time"":13464},{""page_index"":4,""viewing_time"":11416}]","74246","","","",""
"","","","","","html-button-response","4","119728","0.0-4.0-0.0-0.0","36","1","2025-01-25 16:35:38","af8d355d56820e421d246a7037deb6e6","88.209.235.181","Mozilla/5.0 (Windows NT 10.0; Win64; x64) AppleWebKit/537.36 (KHTML, like Gecko) Chrome/129.0.0.0 Safari/537.36","WebKit","Chrome","129.0.0.0","Windows","10.0","https://app.prolific.com/","en,en-US;q=0.9","677527596d51edae18442b1e","67949641171f97c04e14fb34","679512ccd1199325cc883497","","27119","","0","Intro Trial",""
"","","","","","html-button-response","5","121424","0.0-4.1-0.1-0.1","36","1","2025-01-25 16:35:38","af8d355d56820e421d246a7037deb6e6","88.209.235.181","Mozilla/5.0 (Windows NT 10.0; Win64; x64) AppleWebKit/537.36 (KHTML, like Gecko) Chrome/129.0.0.0 Safari/537.36","WebKit","Chrome","129.0.0.0","Windows","10.0","https://app.prolific.com/","en,en-US;q=0.9","677527596d51edae18442b1e","67949641171f97c04e14fb34","679512ccd1199325cc883497","","1695","","1","Intro Trial",""
"","","","","","html-button-response","6","127759","0.0-4.2-0.2-0.2","36","1","2025-01-25 16:35:38","af8d355d56820e421d246a7037deb6e6","88.209.235.181","Mozilla/5.0 (Windows NT 10.0; Win64; x64) AppleWebKit/537.36 (KHTML, like Gecko) Chrome/129.0.0.0 Safari/537.36","WebKit","Chrome","129.0.0.0","Windows","10.0","https://app.prolific.com/","en,en-US;q=0.9","677527596d51edae18442b1e","67949641171f97c04e14fb34","679512ccd1199325cc883497","","6334","","0","Intro Trial",""
"","","","","","html-button-response","7","129039","0.0-4.3-0.3-0.3","36","1","2025-01-25 16:35:38","af8d355d56820e421d246a7037deb6e6","88.209.235.181","Mozilla/5.0 (Windows NT 10.0; Win64; x64) AppleWebKit/537.36 (KHTML, like Gecko) Chrome/129.0.0.0 Safari/537.36","WebKit","Chrome","129.0.0.0","Windows","10.0","https://app.prolific.com/","en,en-US;q=0.9","677527596d51edae18442b1e","67949641171f97c04e14fb34","679512ccd1199325cc883497","","1279","","2","Intro Trial",""
"","","","","","html-button-response","8","133191","0.0-4.4-0.4-0.4","36","1","2025-01-25 16:35:38","af8d355d56820e421d246a7037deb6e6","88.209.235.181","Mozilla/5.0 (Windows NT 10.0; Win64; x64) AppleWebKit/537.36 (KHTML, like Gecko) Chrome/129.0.0.0 Safari/537.36","WebKit","Chrome","129.0.0.0","Windows","10.0","https://app.prolific.com/","en,en-US;q=0.9","677527596d51edae18442b1e","67949641171f97c04e14fb34","679512ccd1199325cc883497","","4151","","0","Intro Trial",""
"","","","","","html-button-response","9","133775","0.0-4.5-0.5-0.5","36","1","2025-01-25 16:35:38","af8d355d56820e421d246a7037deb6e6","88.209.235.181","Mozilla/5.0 (Windows NT 10.0; Win64; x64) AppleWebKit/537.36 (KHTML, like Gecko) Chrome/129.0.0.0 Safari/537.36","WebKit","Chrome","129.0.0.0","Windows","10.0","https://app.prolific.com/","en,en-US;q=0.9","677527596d51edae18442b1e","67949641171f97c04e14fb34","679512ccd1199325cc883497","","583","","2","Intro Trial",""
"","","","","","html-button-response","10","146431","0.0-4.6-0.6-0.6","36","1","2025-01-25 16:35:38","af8d355d56820e421d246a7037deb6e6","88.209.235.181","Mozilla/5.0 (Windows NT 10.0; Win64; x64) AppleWebKit/537.36 (KHTML, like Gecko) Chrome/129.0.0.0 Safari/537.36","WebKit","Chrome","129.0.0.0","Windows","10.0","https://app.prolific.com/","en,en-US;q=0.9","677527596d51edae18442b1e","67949641171f97c04e14fb34","679512ccd1199325cc883497","","12655","","0","Intro Trial",""
"","","","","","html-button-response","11","147047","0.0-4.7-0.7-0.7","36","1","2025-01-25 16:35:38","af8d355d56820e421d246a7037deb6e6","88.209.235.181","Mozilla/5.0 (Windows NT 10.0; Win64; x64) AppleWebKit/537.36 (KHTML, like Gecko) Chrome/129.0.0.0 Safari/537.36","WebKit","Chrome","129.0.0.0","Windows","10.0","https://app.prolific.com/","en,en-US;q=0.9","677527596d51edae18442b1e","67949641171f97c04e14fb34","679512ccd1199325cc883497","","615","","1","Intro Trial",""
"","","","","","html-button-response","12","147799","0.0-4.8-0.8-0.8","36","1","2025-01-25 16:35:38","af8d355d56820e421d246a7037deb6e6","88.209.235.181","Mozilla/5.0 (Windows NT 10.0; Win64; x64) AppleWebKit/537.36 (KHTML, like Gecko) Chrome/129.0.0.0 Safari/537.36","WebKit","Chrome","129.0.0.0","Windows","10.0","https://app.prolific.com/","en,en-US;q=0.9","677527596d51edae18442b1e","67949641171f97c04e14fb34","679512ccd1199325cc883497","","751","","2","Intro Trial",""
"","","","","","html-button-response","13","148207","0.0-4.9-0.9-0.9","36","1","2025-01-25 16:35:38","af8d355d56820e421d246a7037deb6e6","88.209.235.181","Mozilla/5.0 (Windows NT 10.0; Win64; x64) AppleWebKit/537.36 (KHTML, like Gecko) Chrome/129.0.0.0 Safari/537.36","WebKit","Chrome","129.0.0.0","Windows","10.0","https://app.prolific.com/","en,en-US;q=0.9","677527596d51edae18442b1e","67949641171f97c04e14fb34","679512ccd1199325cc883497","","407","","3","Intro Trial",""
"","","","","","html-button-response","14","149111","0.0-4.10-0.10-0.10","36","1","2025-01-25 16:35:38","af8d355d56820e421d246a7037deb6e6","88.209.235.181","Mozilla/5.0 (Windows NT 10.0; Win64; x64) AppleWebKit/537.36 (KHTML, like Gecko) Chrome/129.0.0.0 Safari/537.36","WebKit","Chrome","129.0.0.0","Windows","10.0","https://app.prolific.com/","en,en-US;q=0.9","677527596d51edae18442b1e","67949641171f97c04e14fb34","679512ccd1199325cc883497","","903","","2","Intro Trial",""
"","","","","","html-button-response","15","149455","0.0-4.11-0.11-0.11","36","1","2025-01-25 16:35:38","af8d355d56820e421d246a7037deb6e6","88.209.235.181","Mozilla/5.0 (Windows NT 10.0; Win64; x64) AppleWebKit/537.36 (KHTML, like Gecko) Chrome/129.0.0.0 Safari/537.36","WebKit","Chrome","129.0.0.0","Windows","10.0","https://app.prolific.com/","en,en-US;q=0.9","677527596d51edae18442b1e","67949641171f97c04e14fb34","679512ccd1199325cc883497","","343","","3","Intro Trial",""
"","","","","","html-button-response","16","151095","0.0-4.12-0.12-0.12","36","1","2025-01-25 16:35:38","af8d355d56820e421d246a7037deb6e6","88.209.235.181","Mozilla/5.0 (Windows NT 10.0; Win64; x64) AppleWebKit/537.36 (KHTML, like Gecko) Chrome/129.0.0.0 Safari/537.36","WebKit","Chrome","129.0.0.0","Windows","10.0","https://app.prolific.com/","en,en-US;q=0.9","677527596d51edae18442b1e","67949641171f97c04e14fb34","679512ccd1199325cc883497","","1639","","2","Intro Trial",""
"","","","","","html-button-response","17","151535","0.0-4.13-0.13-0.13","36","1","2025-01-25 16:35:38","af8d355d56820e421d246a7037deb6e6","88.209.235.181","Mozilla/5.0 (Windows NT 10.0; Win64; x64) AppleWebKit/537.36 (KHTML, like Gecko) Chrome/129.0.0.0 Safari/537.36","WebKit","Chrome","129.0.0.0","Windows","10.0","https://app.prolific.com/","en,en-US;q=0.9","677527596d51edae18442b1e","67949641171f97c04e14fb34","679512ccd1199325cc883497","","439","","2","Intro Trial",""
"","","","","","html-button-response","18","151967","0.0-4.14-0.14-0.14","36","1","2025-01-25 16:35:38","af8d355d56820e421d246a7037deb6e6","88.209.235.181","Mozilla/5.0 (Windows NT 10.0; Win64; x64) AppleWebKit/537.36 (KHTML, like Gecko) Chrome/129.0.0.0 Safari/537.36","WebKit","Chrome","129.0.0.0","Windows","10.0","https://app.prolific.com/","en,en-US;q=0.9","677527596d51edae18442b1e","67949641171f97c04e14fb34","679512ccd1199325cc883497","","431","","4","Intro Trial",""
"","","","","","html-button-response","19","171703","0.0-4.15-0.15-0.15","36","1","2025-01-25 16:35:38","af8d355d56820e421d246a7037deb6e6","88.209.235.181","Mozilla/5.0 (Windows NT 10.0; Win64; x64) AppleWebKit/537.36 (KHTML, like Gecko) Chrome/129.0.0.0 Safari/537.36","WebKit","Chrome","129.0.0.0","Windows","10.0","https://app.prolific.com/","en,en-US;q=0.9","677527596d51edae18442b1e","67949641171f97c04e14fb34","679512ccd1199325cc883497","","19735","","2","Intro Trial",""
"","","","","","html-button-response","20","180063","0.0-4.16-0.16-0.16","36","1","2025-01-25 16:35:38","af8d355d56820e421d246a7037deb6e6","88.209.235.181","Mozilla/5.0 (Windows NT 10.0; Win64; x64) AppleWebKit/537.36 (KHTML, like Gecko) Chrome/129.0.0.0 Safari/537.36","WebKit","Chrome","129.0.0.0","Windows","10.0","https://app.prolific.com/","en,en-US;q=0.9","677527596d51edae18442b1e","67949641171f97c04e14fb34","679512ccd1199325cc883497","","8359","","0","Intro Trial",""
"","","","","","html-button-response","21","180887","0.0-4.17-0.17-0.17","36","1","2025-01-25 16:35:38","af8d355d56820e421d246a7037deb6e6","88.209.235.181","Mozilla/5.0 (Windows NT 10.0; Win64; x64) AppleWebKit/537.36 (KHTML, like Gecko) Chrome/129.0.0.0 Safari/537.36","WebKit","Chrome","129.0.0.0","Windows","10.0","https://app.prolific.com/","en,en-US;q=0.9","677527596d51edae18442b1e","67949641171f97c04e14fb34","679512ccd1199325cc883497","","823","","2","Intro Trial",""
"","","","","","html-button-response","22","183551","0.0-4.18-0.18-0.18","36","1","2025-01-25 16:35:38","af8d355d56820e421d246a7037deb6e6","88.209.235.181","Mozilla/5.0 (Windows NT 10.0; Win64; x64) AppleWebKit/537.36 (KHTML, like Gecko) Chrome/129.0.0.0 Safari/537.36","WebKit","Chrome","129.0.0.0","Windows","10.0","https://app.prolific.com/","en,en-US;q=0.9","677527596d51edae18442b1e","67949641171f97c04e14fb34","679512ccd1199325cc883497","","2663","","5","Intro Trial",""
"","","","","","html-keyboard-response","23","194615","0.0-5.0","36","1","2025-01-25 16:35:38","af8d355d56820e421d246a7037deb6e6","88.209.235.181","Mozilla/5.0 (Windows NT 10.0; Win64; x64) AppleWebKit/537.36 (KHTML, like Gecko) Chrome/129.0.0.0 Safari/537.36","WebKit","Chrome","129.0.0.0","Windows","10.0","https://app.prolific.com/","en,en-US;q=0.9","677527596d51edae18442b1e","67949641171f97c04e14fb34","679512ccd1199325cc883497","","11063","[""You sorted incorrectly by using the balance 8 times. <br><br> <img src='G_5.jpg' height='90'><img src='G_1.jpg' height='90'><img src='G_2.jpg' height='90'><img src='G_4.jpg' height='90'><img src='G_3.jpg' height='90'><br><br> Your final order is 1,4,2,5,3<br><br><br>Omgne Sort in this game will allow you to sort correctly by using the balance 8 times. Press Enter to learn it!""]","enter","",""
"","","","","","html-keyboard-response","24","198695","0.0-6.0","36","1","2025-01-25 16:35:38","af8d355d56820e421d246a7037deb6e6","88.209.235.181","Mozilla/5.0 (Windows NT 10.0; Win64; x64) AppleWebKit/537.36 (KHTML, like Gecko) Chrome/129.0.0.0 Safari/537.36","WebKit","Chrome","129.0.0.0","Windows","10.0","https://app.prolific.com/","en,en-US;q=0.9","677527596d51edae18442b1e","67949641171f97c04e14fb34","679512ccd1199325cc883497","","4079","<p>Welcome to the learning phase! <br><br> You will learn by six examples. The following learning trials will not be used to calculate your performance. <br><br> Press Enter to continue.<p/>","enter","",""
"","","","","","html-keyboard-response","25","200943","0.0-7.0","36","1","2025-01-25 16:35:38","af8d355d56820e421d246a7037deb6e6","88.209.235.181","Mozilla/5.0 (Windows NT 10.0; Win64; x64) AppleWebKit/537.36 (KHTML, like Gecko) Chrome/129.0.0.0 Safari/537.36","WebKit","Chrome","129.0.0.0","Windows","10.0","https://app.prolific.com/","en,en-US;q=0.9","677527596d51edae18442b1e","67949641171f97c04e14fb34","679512ccd1199325cc883497","","2247","[""Example 1<br><br>You will watch Omnge Sort in action. Try to identify any patterns in the comparisons made by this method. <br><br>Press Enter to continue.""]","enter","",""
"","","","","","html-keyboard-response","26","201445","0.0-8.0","36","1","2025-01-25 16:35:38","af8d355d56820e421d246a7037deb6e6","88.209.235.181","Mozilla/5.0 (Windows NT 10.0; Win64; x64) AppleWebKit/537.36 (KHTML, like Gecko) Chrome/129.0.0.0 Safari/537.36","WebKit","Chrome","129.0.0.0","Windows","10.0","https://app.prolific.com/","en,en-US;q=0.9","677527596d51edae18442b1e","67949641171f97c04e14fb34","679512ccd1199325cc883497","","null","<img id='selected' src='G_5.jpg' height='90'> <img src='G_3.jpg' height='90'> <img src='G_1.jpg' height='90'> <img src='G_9.jpg' height='90'> <img src='G_7.jpg' height='90'>","null","Animation0",""
"","","","","","html-keyboard-response","27","201949","0.0-9.0","36","1","2025-01-25 16:35:38","af8d355d56820e421d246a7037deb6e6","88.209.235.181","Mozilla/5.0 (Windows NT 10.0; Win64; x64) AppleWebKit/537.36 (KHTML, like Gecko) Chrome/129.0.0.0 Safari/537.36","WebKit","Chrome","129.0.0.0","Windows","10.0","https://app.prolific.com/","en,en-US;q=0.9","677527596d51edae18442b1e","67949641171f97c04e14fb34","679512ccd1199325cc883497","","null","<img id='selected' src='G_5.jpg' height='90'> <img id='selected' src='G_3.jpg' height='90'> <img src='G_1.jpg' height='90'> <img src='G_9.jpg' height='90'> <img src='G_7.jpg' height='90'>","null","Animation0",""
"","","","","","html-keyboard-response","28","202453","0.0-10.0","36","1","2025-01-25 16:35:38","af8d355d56820e421d246a7037deb6e6","88.209.235.181","Mozilla/5.0 (Windows NT 10.0; Win64; x64) AppleWebKit/537.36 (KHTML, like Gecko) Chrome/129.0.0.0 Safari/537.36","WebKit","Chrome","129.0.0.0","Windows","10.0","https://app.prolific.com/","en,en-US;q=0.9","677527596d51edae18442b1e","67949641171f97c04e14fb34","679512ccd1199325cc883497","","null","<img id='swapped' src='G_3.jpg' height='90'> <img id='swapped' src='G_5.jpg' height='90'> <img src='G_1.jpg' height='90'> <img src='G_9.jpg' height='90'> <img src='G_7.jpg' height='90'>","null","Animation0",""
"","","","","","html-keyboard-response","29","202757","0.0-11.0","36","1","2025-01-25 16:35:38","af8d355d56820e421d246a7037deb6e6","88.209.235.181","Mozilla/5.0 (Windows NT 10.0; Win64; x64) AppleWebKit/537.36 (KHTML, like Gecko) Chrome/129.0.0.0 Safari/537.36","WebKit","Chrome","129.0.0.0","Windows","10.0","https://app.prolific.com/","en,en-US;q=0.9","677527596d51edae18442b1e","67949641171f97c04e14fb34","679512ccd1199325cc883497","","null","<img  src='G_3.jpg' height='90'> <img  src='G_5.jpg' height='90'> <img src='G_1.jpg' height='90'> <img src='G_9.jpg' height='90'> <img src='G_7.jpg' height='90'>","null","Animation0",""
"","","","","","html-keyboard-response","30","203261","0.0-12.0","36","1","2025-01-25 16:35:38","af8d355d56820e421d246a7037deb6e6","88.209.235.181","Mozilla/5.0 (Windows NT 10.0; Win64; x64) AppleWebKit/537.36 (KHTML, like Gecko) Chrome/129.0.0.0 Safari/537.36","WebKit","Chrome","129.0.0.0","Windows","10.0","https://app.prolific.com/","en,en-US;q=0.9","677527596d51edae18442b1e","67949641171f97c04e14fb34","679512ccd1199325cc883497","","null","<img  src='G_3.jpg' height='90'> <img id='selected'  src='G_5.jpg' height='90'> <img src='G_1.jpg' height='90'> <img src='G_9.jpg' height='90'> <img src='G_7.jpg' height='90'>","null","Animation0",""
"","","","","","html-keyboard-response","31","203776","0.0-13.0","36","1","2025-01-25 16:35:38","af8d355d56820e421d246a7037deb6e6","88.209.235.181","Mozilla/5.0 (Windows NT 10.0; Win64; x64) AppleWebKit/537.36 (KHTML, like Gecko) Chrome/129.0.0.0 Safari/537.36","WebKit","Chrome","129.0.0.0","Windows","10.0","https://app.prolific.com/","en,en-US;q=0.9","677527596d51edae18442b1e","67949641171f97c04e14fb34","679512ccd1199325cc883497","","null","<img  src='G_3.jpg' height='90'> <img id='selected'  src='G_5.jpg' height='90'> <img id='selected' src='G_1.jpg' height='90'> <img src='G_9.jpg' height='90'> <img src='G_7.jpg' height='90'>","null","Animation0",""
"","","","","","html-keyboard-response","32","204278","0.0-14.0","36","1","2025-01-25 16:35:38","af8d355d56820e421d246a7037deb6e6","88.209.235.181","Mozilla/5.0 (Windows NT 10.0; Win64; x64) AppleWebKit/537.36 (KHTML, like Gecko) Chrome/129.0.0.0 Safari/537.36","WebKit","Chrome","129.0.0.0","Windows","10.0","https://app.prolific.com/","en,en-US;q=0.9","677527596d51edae18442b1e","67949641171f97c04e14fb34","679512ccd1199325cc883497","","null","<img  src='G_3.jpg' height='90'> <img id='selected'  src='G_5.jpg' height='90'> <img id='selected' src='G_1.jpg' height='90'> <img src='G_9.jpg' height='90'> <img src='G_7.jpg' height='90'>","null","Animation0",""
"","","","","","html-keyboard-response","33","204581","0.0-15.0","36","1","2025-01-25 16:35:38","af8d355d56820e421d246a7037deb6e6","88.209.235.181","Mozilla/5.0 (Windows NT 10.0; Win64; x64) AppleWebKit/537.36 (KHTML, like Gecko) Chrome/129.0.0.0 Safari/537.36","WebKit","Chrome","129.0.0.0","Windows","10.0","https://app.prolific.com/","en,en-US;q=0.9","677527596d51edae18442b1e","67949641171f97c04e14fb34","679512ccd1199325cc883497","","null","<img  src='G_3.jpg' height='90'> <img   src='G_5.jpg' height='90'> <img  src='G_1.jpg' height='90'> <img src='G_9.jpg' height='90'> <img src='G_7.jpg' height='90'>","null","Animation0",""
"","","","","","html-keyboard-response","34","205086","0.0-16.0","36","1","2025-01-25 16:35:38","af8d355d56820e421d246a7037deb6e6","88.209.235.181","Mozilla/5.0 (Windows NT 10.0; Win64; x64) AppleWebKit/537.36 (KHTML, like Gecko) Chrome/129.0.0.0 Safari/537.36","WebKit","Chrome","129.0.0.0","Windows","10.0","https://app.prolific.com/","en,en-US;q=0.9","677527596d51edae18442b1e","67949641171f97c04e14fb34","679512ccd1199325cc883497","","null","<img  src='G_3.jpg' height='90'> <img   src='G_5.jpg' height='90'> <img id='selected'  src='G_1.jpg' height='90'> <img src='G_9.jpg' height='90'> <img src='G_7.jpg' height='90'>","null","Animation0",""
"","","","","","html-keyboard-response","35","205590","0.0-17.0","36","1","2025-01-25 16:35:38","af8d355d56820e421d246a7037deb6e6","88.209.235.181","Mozilla/5.0 (Windows NT 10.0; Win64; x64) AppleWebKit/537.36 (KHTML, like Gecko) Chrome/129.0.0.0 Safari/537.36","WebKit","Chrome","129.0.0.0","Windows","10.0","https://app.prolific.com/","en,en-US;q=0.9","677527596d51edae18442b1e","67949641171f97c04e14fb34","679512ccd1199325cc883497","","null","<img  src='G_3.jpg' height='90'> <img   src='G_5.jpg' height='90'> <img id='selected'  src='G_1.jpg' height='90'> <img id='selected' src='G_9.jpg' height='90'> <img src='G_7.jpg' height='90'>","null","Animation0",""
"","","","","","html-keyboard-response","36","206094","0.0-18.0","36","1","2025-01-25 16:35:38","af8d355d56820e421d246a7037deb6e6","88.209.235.181","Mozilla/5.0 (Windows NT 10.0; Win64; x64) AppleWebKit/537.36 (KHTML, like Gecko) Chrome/129.0.0.0 Safari/537.36","WebKit","Chrome","129.0.0.0","Windows","10.0","https://app.prolific.com/","en,en-US;q=0.9","677527596d51edae18442b1e","67949641171f97c04e14fb34","679512ccd1199325cc883497","","null","<img  src='G_3.jpg' height='90'> <img   src='G_5.jpg' height='90'> <img id='selected'  src='G_1.jpg' height='90'> <img id='selected' src='G_9.jpg' height='90'> <img src='G_7.jpg' height='90'>","null","Animation0",""
"","","","","","html-keyboard-response","37","206398","0.0-19.0","36","1","2025-01-25 16:35:38","af8d355d56820e421d246a7037deb6e6","88.209.235.181","Mozilla/5.0 (Windows NT 10.0; Win64; x64) AppleWebKit/537.36 (KHTML, like Gecko) Chrome/129.0.0.0 Safari/537.36","WebKit","Chrome","129.0.0.0","Windows","10.0","https://app.prolific.com/","en,en-US;q=0.9","677527596d51edae18442b1e","67949641171f97c04e14fb34","679512ccd1199325cc883497","","null","<img  src='G_3.jpg' height='90'> <img   src='G_5.jpg' height='90'> <img   src='G_1.jpg' height='90'> <img  src='G_9.jpg' height='90'> <img src='G_7.jpg' height='90'>","null","Animation0",""
"","","","","","html-keyboard-response","38","206902","0.0-20.0","36","1","2025-01-25 16:35:38","af8d355d56820e421d246a7037deb6e6","88.209.235.181","Mozilla/5.0 (Windows NT 10.0; Win64; x64) AppleWebKit/537.36 (KHTML, like Gecko) Chrome/129.0.0.0 Safari/537.36","WebKit","Chrome","129.0.0.0","Windows","10.0","https://app.prolific.com/","en,en-US;q=0.9","677527596d51edae18442b1e","67949641171f97c04e14fb34","679512ccd1199325cc883497","","null","<img  src='G_3.jpg' height='90'> <img   src='G_5.jpg' height='90'> <img   src='G_1.jpg' height='90'> <img id='selected'  src='G_9.jpg' height='90'> <img src='G_7.jpg' height='90'>","null","Animation0",""
"","","","","","html-keyboard-response","39","207409","0.0-21.0","36","1","2025-01-25 16:35:38","af8d355d56820e421d246a7037deb6e6","88.209.235.181","Mozilla/5.0 (Windows NT 10.0; Win64; x64) AppleWebKit/537.36 (KHTML, like Gecko) Chrome/129.0.0.0 Safari/537.36","WebKit","Chrome","129.0.0.0","Windows","10.0","https://app.prolific.com/","en,en-US;q=0.9","677527596d51edae18442b1e","67949641171f97c04e14fb34","679512ccd1199325cc883497","","null","<img  src='G_3.jpg' height='90'> <img   src='G_5.jpg' height='90'> <img   src='G_1.jpg' height='90'> <img id='selected'  src='G_9.jpg' height='90'> <img id='selected' src='G_7.jpg' height='90'>","null","Animation0",""
"","","","","","html-keyboard-response","40","207913","0.0-22.0","36","1","2025-01-25 16:35:38","af8d355d56820e421d246a7037deb6e6","88.209.235.181","Mozilla/5.0 (Windows NT 10.0; Win64; x64) AppleWebKit/537.36 (KHTML, like Gecko) Chrome/129.0.0.0 Safari/537.36","WebKit","Chrome","129.0.0.0","Windows","10.0","https://app.prolific.com/","en,en-US;q=0.9","677527596d51edae18442b1e","67949641171f97c04e14fb34","679512ccd1199325cc883497","","null","<img  src='G_3.jpg' height='90'> <img   src='G_5.jpg' height='90'> <img   src='G_1.jpg' height='90'> <img id='selected'  src='G_9.jpg' height='90'> <img id='selected' src='G_7.jpg' height='90'>","null","Animation0",""
"","","","","","html-keyboard-response","41","208215","0.0-23.0","36","1","2025-01-25 16:35:38","af8d355d56820e421d246a7037deb6e6","88.209.235.181","Mozilla/5.0 (Windows NT 10.0; Win64; x64) AppleWebKit/537.36 (KHTML, like Gecko) Chrome/129.0.0.0 Safari/537.36","WebKit","Chrome","129.0.0.0","Windows","10.0","https://app.prolific.com/","en,en-US;q=0.9","677527596d51edae18442b1e","67949641171f97c04e14fb34","679512ccd1199325cc883497","","null","<img  src='G_3.jpg' height='90'> <img   src='G_5.jpg' height='90'> <img   src='G_1.jpg' height='90'> <img   src='G_9.jpg' height='90'> <img  src='G_7.jpg' height='90'>","null","Animation0",""
"","","","","","html-keyboard-response","42","211879","0.0-24.0","36","1","2025-01-25 16:35:38","af8d355d56820e421d246a7037deb6e6","88.209.235.181","Mozilla/5.0 (Windows NT 10.0; Win64; x64) AppleWebKit/537.36 (KHTML, like Gecko) Chrome/129.0.0.0 Safari/537.36","WebKit","Chrome","129.0.0.0","Windows","10.0","https://app.prolific.com/","en,en-US;q=0.9","677527596d51edae18442b1e","67949641171f97c04e14fb34","679512ccd1199325cc883497","","3661","[""Did you notice any patterns? <br><br>Press Enter to watch that example again and follow the steps of Omgne Sort.""]","enter","",""
"","","","","","html-button-response","43","212282","0.0-25.0","36","1","2025-01-25 16:35:38","af8d355d56820e421d246a7037deb6e6","88.209.235.181","Mozilla/5.0 (Windows NT 10.0; Win64; x64) AppleWebKit/537.36 (KHTML, like Gecko) Chrome/129.0.0.0 Safari/537.36","WebKit","Chrome","129.0.0.0","Windows","10.0","https://app.prolific.com/","en,en-US;q=0.9","677527596d51edae18442b1e","67949641171f97c04e14fb34","679512ccd1199325cc883497","","null","<img id='selected' src='G_5.jpg' height='90'> <img src='G_3.jpg' height='90'> <img src='G_1.jpg' height='90'> <img src='G_9.jpg' height='90'> <img src='G_7.jpg' height='90'>","null","Learning example 0",""
"","","","","","html-button-response","44","212585","0.0-26.0","36","1","2025-01-25 16:35:38","af8d355d56820e421d246a7037deb6e6","88.209.235.181","Mozilla/5.0 (Windows NT 10.0; Win64; x64) AppleWebKit/537.36 (KHTML, like Gecko) Chrome/129.0.0.0 Safari/537.36","WebKit","Chrome","129.0.0.0","Windows","10.0","https://app.prolific.com/","en,en-US;q=0.9","677527596d51edae18442b1e","67949641171f97c04e14fb34","679512ccd1199325cc883497","","null","<img id='selected' src='G_5.jpg' height='90'> <img id='selected' src='G_3.jpg' height='90'> <img src='G_1.jpg' height='90'> <img src='G_9.jpg' height='90'> <img src='G_7.jpg' height='90'>","null","Learning example 0",""
"","","","","","html-button-response","45","212890","0.0-27.0","36","1","2025-01-25 16:35:38","af8d355d56820e421d246a7037deb6e6","88.209.235.181","Mozilla/5.0 (Windows NT 10.0; Win64; x64) AppleWebKit/537.36 (KHTML, like Gecko) Chrome/129.0.0.0 Safari/537.36","WebKit","Chrome","129.0.0.0","Windows","10.0","https://app.prolific.com/","en,en-US;q=0.9","677527596d51edae18442b1e","67949641171f97c04e14fb34","679512ccd1199325cc883497","","null","<img id='swapped' src='G_3.jpg' height='90'> <img id='swapped' src='G_5.jpg' height='90'> <img src='G_1.jpg' height='90'> <img src='G_9.jpg' height='90'> <img src='G_7.jpg' height='90'>","null","Learning example 0",""
"","","","","","html-button-response","46","230199","0.0-28.0-0.0-0.0","36","1","2025-01-25 16:35:38","af8d355d56820e421d246a7037deb6e6","88.209.235.181","Mozilla/5.0 (Windows NT 10.0; Win64; x64) AppleWebKit/537.36 (KHTML, like Gecko) Chrome/129.0.0.0 Safari/537.36","WebKit","Chrome","129.0.0.0","Windows","10.0","https://app.prolific.com/","en,en-US;q=0.9","677527596d51edae18442b1e","67949641171f97c04e14fb34","679512ccd1199325cc883497","","17304","<img id='swapped' src='G_3.jpg' height='90'> <img id='swapped' src='G_5.jpg' height='90'> <img src='G_1.jpg' height='90'> <img src='G_9.jpg' height='90'> <img src='G_7.jpg' height='90'>","2","Learning example 0",""
"","","","","","html-button-response","47","232030","0.0-28.1-0.1-0.1","36","1","2025-01-25 16:35:38","af8d355d56820e421d246a7037deb6e6","88.209.235.181","Mozilla/5.0 (Windows NT 10.0; Win64; x64) AppleWebKit/537.36 (KHTML, like Gecko) Chrome/129.0.0.0 Safari/537.36","WebKit","Chrome","129.0.0.0","Windows","10.0","https://app.prolific.com/","en,en-US;q=0.9","677527596d51edae18442b1e","67949641171f97c04e14fb34","679512ccd1199325cc883497","","1829","<img id='swapped' src='G_3.jpg' height='90'> <img id='swapped' src='G_5.jpg' height='90'> <img src='G_1.jpg' height='90'> <img src='G_9.jpg' height='90'> <img src='G_7.jpg' height='90'>","3","Learning example 0",""
"","","","","","html-button-response","48","232590","0.0-28.2-0.2-0.2","36","1","2025-01-25 16:35:38","af8d355d56820e421d246a7037deb6e6","88.209.235.181","Mozilla/5.0 (Windows NT 10.0; Win64; x64) AppleWebKit/537.36 (KHTML, like Gecko) Chrome/129.0.0.0 Safari/537.36","WebKit","Chrome","129.0.0.0","Windows","10.0","https://app.prolific.com/","en,en-US;q=0.9","677527596d51edae18442b1e","67949641171f97c04e14fb34","679512ccd1199325cc883497","","558","<img id='swapped' src='G_3.jpg' height='90'> <img id='swapped' src='G_5.jpg' height='90'> <img src='G_1.jpg' height='90'> <img src='G_9.jpg' height='90'> <img src='G_7.jpg' height='90'>","2","Learning example 0",""
"","","","","","html-button-response","49","234374","0.0-28.3-0.3-0.3","36","1","2025-01-25 16:35:38","af8d355d56820e421d246a7037deb6e6","88.209.235.181","Mozilla/5.0 (Windows NT 10.0; Win64; x64) AppleWebKit/537.36 (KHTML, like Gecko) Chrome/129.0.0.0 Safari/537.36","WebKit","Chrome","129.0.0.0","Windows","10.0","https://app.prolific.com/","en,en-US;q=0.9","677527596d51edae18442b1e","67949641171f97c04e14fb34","679512ccd1199325cc883497","","1782","<img id='swapped' src='G_3.jpg' height='90'> <img id='swapped' src='G_5.jpg' height='90'> <img src='G_1.jpg' height='90'> <img src='G_9.jpg' height='90'> <img src='G_7.jpg' height='90'>","2","Learning example 0",""
"","","","","","html-button-response","50","235702","0.0-28.4-0.4-0.4","36","1","2025-01-25 16:35:38","af8d355d56820e421d246a7037deb6e6","88.209.235.181","Mozilla/5.0 (Windows NT 10.0; Win64; x64) AppleWebKit/537.36 (KHTML, like Gecko) Chrome/129.0.0.0 Safari/537.36","WebKit","Chrome","129.0.0.0","Windows","10.0","https://app.prolific.com/","en,en-US;q=0.9","677527596d51edae18442b1e","67949641171f97c04e14fb34","679512ccd1199325cc883497","","1327","<img id='swapped' src='G_3.jpg' height='90'> <img id='swapped' src='G_5.jpg' height='90'> <img src='G_1.jpg' height='90'> <img src='G_9.jpg' height='90'> <img src='G_7.jpg' height='90'>","2","Learning example 0",""
"","","","","","html-button-response","51","238646","0.0-28.5-0.5-0.5","36","1","2025-01-25 16:35:38","af8d355d56820e421d246a7037deb6e6","88.209.235.181","Mozilla/5.0 (Windows NT 10.0; Win64; x64) AppleWebKit/537.36 (KHTML, like Gecko) Chrome/129.0.0.0 Safari/537.36","WebKit","Chrome","129.0.0.0","Windows","10.0","https://app.prolific.com/","en,en-US;q=0.9","677527596d51edae18442b1e","67949641171f97c04e14fb34","679512ccd1199325cc883497","","2942","<img id='swapped' src='G_3.jpg' height='90'> <img id='swapped' src='G_5.jpg' height='90'> <img src='G_1.jpg' height='90'> <img src='G_9.jpg' height='90'> <img src='G_7.jpg' height='90'>","0","Learning example 0",""
"","","","","","html-button-response","52","239350","0.0-28.6-0.6-0.6","36","1","2025-01-25 16:35:38","af8d355d56820e421d246a7037deb6e6","88.209.235.181","Mozilla/5.0 (Windows NT 10.0; Win64; x64) AppleWebKit/537.36 (KHTML, like Gecko) Chrome/129.0.0.0 Safari/537.36","WebKit","Chrome","129.0.0.0","Windows","10.0","https://app.prolific.com/","en,en-US;q=0.9","677527596d51edae18442b1e","67949641171f97c04e14fb34","679512ccd1199325cc883497","","702","<img id='swapped' src='G_3.jpg' height='90'> <img id='swapped' src='G_5.jpg' height='90'> <img src='G_1.jpg' height='90'> <img src='G_9.jpg' height='90'> <img src='G_7.jpg' height='90'>","1","Learning example 0",""
"","","","","","html-button-response","53","239553","0.0-29.0","36","1","2025-01-25 16:35:38","af8d355d56820e421d246a7037deb6e6","88.209.235.181","Mozilla/5.0 (Windows NT 10.0; Win64; x64) AppleWebKit/537.36 (KHTML, like Gecko) Chrome/129.0.0.0 Safari/537.36","WebKit","Chrome","129.0.0.0","Windows","10.0","https://app.prolific.com/","en,en-US;q=0.9","677527596d51edae18442b1e","67949641171f97c04e14fb34","679512ccd1199325cc883497","","null","<img  src='G_3.jpg' height='90'> <img  src='G_5.jpg' height='90'> <img src='G_1.jpg' height='90'> <img src='G_9.jpg' height='90'> <img src='G_7.jpg' height='90'>","null","Learning example 0",""
"","","","","","html-button-response","54","239957","0.0-30.0","36","1","2025-01-25 16:35:38","af8d355d56820e421d246a7037deb6e6","88.209.235.181","Mozilla/5.0 (Windows NT 10.0; Win64; x64) AppleWebKit/537.36 (KHTML, like Gecko) Chrome/129.0.0.0 Safari/537.36","WebKit","Chrome","129.0.0.0","Windows","10.0","https://app.prolific.com/","en,en-US;q=0.9","677527596d51edae18442b1e","67949641171f97c04e14fb34","679512ccd1199325cc883497","","null","<img  src='G_3.jpg' height='90'> <img id='selected'  src='G_5.jpg' height='90'> <img src='G_1.jpg' height='90'> <img src='G_9.jpg' height='90'> <img src='G_7.jpg' height='90'>","null","Learning example 0",""
"","","","","","html-button-response","55","240263","0.0-31.0","36","1","2025-01-25 16:35:38","af8d355d56820e421d246a7037deb6e6","88.209.235.181","Mozilla/5.0 (Windows NT 10.0; Win64; x64) AppleWebKit/537.36 (KHTML, like Gecko) Chrome/129.0.0.0 Safari/537.36","WebKit","Chrome","129.0.0.0","Windows","10.0","https://app.prolific.com/","en,en-US;q=0.9","677527596d51edae18442b1e","67949641171f97c04e14fb34","679512ccd1199325cc883497","","null","<img  src='G_3.jpg' height='90'> <img id='selected'  src='G_5.jpg' height='90'> <img id='selected' src='G_1.jpg' height='90'> <img src='G_9.jpg' height='90'> <img src='G_7.jpg' height='90'>","null","Learning example 0",""
"","","","","","html-button-response","56","240575","0.0-32.0","36","1","2025-01-25 16:35:38","af8d355d56820e421d246a7037deb6e6","88.209.235.181","Mozilla/5.0 (Windows NT 10.0; Win64; x64) AppleWebKit/537.36 (KHTML, like Gecko) Chrome/129.0.0.0 Safari/537.36","WebKit","Chrome","129.0.0.0","Windows","10.0","https://app.prolific.com/","en,en-US;q=0.9","677527596d51edae18442b1e","67949641171f97c04e14fb34","679512ccd1199325cc883497","","null","<img  src='G_3.jpg' height='90'> <img id='selected'  src='G_5.jpg' height='90'> <img id='selected' src='G_1.jpg' height='90'> <img src='G_9.jpg' height='90'> <img src='G_7.jpg' height='90'>","null","Learning example 0",""
"","","","","","html-button-response","57","243790","0.0-33.0-0.0-0.0","36","1","2025-01-25 16:35:38","af8d355d56820e421d246a7037deb6e6","88.209.235.181","Mozilla/5.0 (Windows NT 10.0; Win64; x64) AppleWebKit/537.36 (KHTML, like Gecko) Chrome/129.0.0.0 Safari/537.36","WebKit","Chrome","129.0.0.0","Windows","10.0","https://app.prolific.com/","en,en-US;q=0.9","677527596d51edae18442b1e","67949641171f97c04e14fb34","679512ccd1199325cc883497","","3211","<img  src='G_3.jpg' height='90'> <img id='selected'  src='G_5.jpg' height='90'> <img id='selected' src='G_1.jpg' height='90'> <img src='G_9.jpg' height='90'> <img src='G_7.jpg' height='90'>","1","Learning example 0",""
"","","","","","html-button-response","58","244222","0.0-33.1-0.1-0.1","36","1","2025-01-25 16:35:38","af8d355d56820e421d246a7037deb6e6","88.209.235.181","Mozilla/5.0 (Windows NT 10.0; Win64; x64) AppleWebKit/537.36 (KHTML, like Gecko) Chrome/129.0.0.0 Safari/537.36","WebKit","Chrome","129.0.0.0","Windows","10.0","https://app.prolific.com/","en,en-US;q=0.9","677527596d51edae18442b1e","67949641171f97c04e14fb34","679512ccd1199325cc883497","","430","<img  src='G_3.jpg' height='90'> <img id='selected'  src='G_5.jpg' height='90'> <img id='selected' src='G_1.jpg' height='90'> <img src='G_9.jpg' height='90'> <img src='G_7.jpg' height='90'>","2","Learning example 0",""
"","","","","","html-button-response","59","244424","0.0-34.0","36","1","2025-01-25 16:35:38","af8d355d56820e421d246a7037deb6e6","88.209.235.181","Mozilla/5.0 (Windows NT 10.0; Win64; x64) AppleWebKit/537.36 (KHTML, like Gecko) Chrome/129.0.0.0 Safari/537.36","WebKit","Chrome","129.0.0.0","Windows","10.0","https://app.prolific.com/","en,en-US;q=0.9","677527596d51edae18442b1e","67949641171f97c04e14fb34","679512ccd1199325cc883497","","null","<img  src='G_3.jpg' height='90'> <img   src='G_5.jpg' height='90'> <img  src='G_1.jpg' height='90'> <img src='G_9.jpg' height='90'> <img src='G_7.jpg' height='90'>","null","Learning example 0",""
"","","","","","html-button-response","60","244827","0.0-35.0","36","1","2025-01-25 16:35:38","af8d355d56820e421d246a7037deb6e6","88.209.235.181","Mozilla/5.0 (Windows NT 10.0; Win64; x64) AppleWebKit/537.36 (KHTML, like Gecko) Chrome/129.0.0.0 Safari/537.36","WebKit","Chrome","129.0.0.0","Windows","10.0","https://app.prolific.com/","en,en-US;q=0.9","677527596d51edae18442b1e","67949641171f97c04e14fb34","679512ccd1199325cc883497","","null","<img  src='G_3.jpg' height='90'> <img   src='G_5.jpg' height='90'> <img id='selected'  src='G_1.jpg' height='90'> <img src='G_9.jpg' height='90'> <img src='G_7.jpg' height='90'>","null","Learning example 0",""
"","","","","","html-button-response","61","245129","0.0-36.0","36","1","2025-01-25 16:35:38","af8d355d56820e421d246a7037deb6e6","88.209.235.181","Mozilla/5.0 (Windows NT 10.0; Win64; x64) AppleWebKit/537.36 (KHTML, like Gecko) Chrome/129.0.0.0 Safari/537.36","WebKit","Chrome","129.0.0.0","Windows","10.0","https://app.prolific.com/","en,en-US;q=0.9","677527596d51edae18442b1e","67949641171f97c04e14fb34","679512ccd1199325cc883497","","null","<img  src='G_3.jpg' height='90'> <img   src='G_5.jpg' height='90'> <img id='selected'  src='G_1.jpg' height='90'> <img id='selected' src='G_9.jpg' height='90'> <img src='G_7.jpg' height='90'>","null","Learning example 0",""
"","","","","","html-button-response","62","245434","0.0-37.0","36","1","2025-01-25 16:35:38","af8d355d56820e421d246a7037deb6e6","88.209.235.181","Mozilla/5.0 (Windows NT 10.0; Win64; x64) AppleWebKit/537.36 (KHTML, like Gecko) Chrome/129.0.0.0 Safari/537.36","WebKit","Chrome","129.0.0.0","Windows","10.0","https://app.prolific.com/","en,en-US;q=0.9","677527596d51edae18442b1e","67949641171f97c04e14fb34","679512ccd1199325cc883497","","null","<img  src='G_3.jpg' height='90'> <img   src='G_5.jpg' height='90'> <img id='selected'  src='G_1.jpg' height='90'> <img id='selected' src='G_9.jpg' height='90'> <img src='G_7.jpg' height='90'>","null","Learning example 0",""
"","","","","","html-button-response","63","247142","0.0-38.0-0.0-0.0","36","1","2025-01-25 16:35:38","af8d355d56820e421d246a7037deb6e6","88.209.235.181","Mozilla/5.0 (Windows NT 10.0; Win64; x64) AppleWebKit/537.36 (KHTML, like Gecko) Chrome/129.0.0.0 Safari/537.36","WebKit","Chrome","129.0.0.0","Windows","10.0","https://app.prolific.com/","en,en-US;q=0.9","677527596d51edae18442b1e","67949641171f97c04e14fb34","679512ccd1199325cc883497","","1706","<img  src='G_3.jpg' height='90'> <img   src='G_5.jpg' height='90'> <img id='selected'  src='G_1.jpg' height='90'> <img id='selected' src='G_9.jpg' height='90'> <img src='G_7.jpg' height='90'>","2","Learning example 0",""
"","","","","","html-button-response","64","247606","0.0-38.1-0.1-0.1","36","1","2025-01-25 16:35:38","af8d355d56820e421d246a7037deb6e6","88.209.235.181","Mozilla/5.0 (Windows NT 10.0; Win64; x64) AppleWebKit/537.36 (KHTML, like Gecko) Chrome/129.0.0.0 Safari/537.36","WebKit","Chrome","129.0.0.0","Windows","10.0","https://app.prolific.com/","en,en-US;q=0.9","677527596d51edae18442b1e","67949641171f97c04e14fb34","679512ccd1199325cc883497","","462","<img  src='G_3.jpg' height='90'> <img   src='G_5.jpg' height='90'> <img id='selected'  src='G_1.jpg' height='90'> <img id='selected' src='G_9.jpg' height='90'> <img src='G_7.jpg' height='90'>","3","Learning example 0",""
"","","","","","html-button-response","65","247808","0.0-39.0","36","1","2025-01-25 16:35:38","af8d355d56820e421d246a7037deb6e6","88.209.235.181","Mozilla/5.0 (Windows NT 10.0; Win64; x64) AppleWebKit/537.36 (KHTML, like Gecko) Chrome/129.0.0.0 Safari/537.36","WebKit","Chrome","129.0.0.0","Windows","10.0","https://app.prolific.com/","en,en-US;q=0.9","677527596d51edae18442b1e","67949641171f97c04e14fb34","679512ccd1199325cc883497","","null","<img  src='G_3.jpg' height='90'> <img   src='G_5.jpg' height='90'> <img   src='G_1.jpg' height='90'> <img  src='G_9.jpg' height='90'> <img src='G_7.jpg' height='90'>","null","Learning example 0",""
"","","","","","html-button-response","66","248214","0.0-40.0","36","1","2025-01-25 16:35:38","af8d355d56820e421d246a7037deb6e6","88.209.235.181","Mozilla/5.0 (Windows NT 10.0; Win64; x64) AppleWebKit/537.36 (KHTML, like Gecko) Chrome/129.0.0.0 Safari/537.36","WebKit","Chrome","129.0.0.0","Windows","10.0","https://app.prolific.com/","en,en-US;q=0.9","677527596d51edae18442b1e","67949641171f97c04e14fb34","679512ccd1199325cc883497","","null","<img  src='G_3.jpg' height='90'> <img   src='G_5.jpg' height='90'> <img   src='G_1.jpg' height='90'> <img id='selected'  src='G_9.jpg' height='90'> <img src='G_7.jpg' height='90'>","null","Learning example 0",""
"","","","","","html-button-response","67","248520","0.0-41.0","36","1","2025-01-25 16:35:38","af8d355d56820e421d246a7037deb6e6","88.209.235.181","Mozilla/5.0 (Windows NT 10.0; Win64; x64) AppleWebKit/537.36 (KHTML, like Gecko) Chrome/129.0.0.0 Safari/537.36","WebKit","Chrome","129.0.0.0","Windows","10.0","https://app.prolific.com/","en,en-US;q=0.9","677527596d51edae18442b1e","67949641171f97c04e14fb34","679512ccd1199325cc883497","","null","<img  src='G_3.jpg' height='90'> <img   src='G_5.jpg' height='90'> <img   src='G_1.jpg' height='90'> <img id='selected'  src='G_9.jpg' height='90'> <img id='selected' src='G_7.jpg' height='90'>","null","Learning example 0",""
"","","","","","html-button-response","68","248824","0.0-42.0","36","1","2025-01-25 16:35:38","af8d355d56820e421d246a7037deb6e6","88.209.235.181","Mozilla/5.0 (Windows NT 10.0; Win64; x64) AppleWebKit/537.36 (KHTML, like Gecko) Chrome/129.0.0.0 Safari/537.36","WebKit","Chrome","129.0.0.0","Windows","10.0","https://app.prolific.com/","en,en-US;q=0.9","677527596d51edae18442b1e","67949641171f97c04e14fb34","679512ccd1199325cc883497","","null","<img  src='G_3.jpg' height='90'> <img   src='G_5.jpg' height='90'> <img   src='G_1.jpg' height='90'> <img id='selected'  src='G_9.jpg' height='90'> <img id='selected' src='G_7.jpg' height='90'>","null","Learning example 0",""
"","","","","","html-button-response","69","249014","0.0-43.0-0.0-0.0","36","1","2025-01-25 16:35:38","af8d355d56820e421d246a7037deb6e6","88.209.235.181","Mozilla/5.0 (Windows NT 10.0; Win64; x64) AppleWebKit/537.36 (KHTML, like Gecko) Chrome/129.0.0.0 Safari/537.36","WebKit","Chrome","129.0.0.0","Windows","10.0","https://app.prolific.com/","en,en-US;q=0.9","677527596d51edae18442b1e","67949641171f97c04e14fb34","679512ccd1199325cc883497","","183","<img  src='G_3.jpg' height='90'> <img   src='G_5.jpg' height='90'> <img   src='G_1.jpg' height='90'> <img id='selected'  src='G_9.jpg' height='90'> <img id='selected' src='G_7.jpg' height='90'>","3","Learning example 0",""
"","","","","","html-button-response","70","249430","0.0-43.1-0.1-0.1","36","1","2025-01-25 16:35:38","af8d355d56820e421d246a7037deb6e6","88.209.235.181","Mozilla/5.0 (Windows NT 10.0; Win64; x64) AppleWebKit/537.36 (KHTML, like Gecko) Chrome/129.0.0.0 Safari/537.36","WebKit","Chrome","129.0.0.0","Windows","10.0","https://app.prolific.com/","en,en-US;q=0.9","677527596d51edae18442b1e","67949641171f97c04e14fb34","679512ccd1199325cc883497","","414","<img  src='G_3.jpg' height='90'> <img   src='G_5.jpg' height='90'> <img   src='G_1.jpg' height='90'> <img id='selected'  src='G_9.jpg' height='90'> <img id='selected' src='G_7.jpg' height='90'>","4","Learning example 0",""
"","","","","","html-button-response","71","249633","0.0-44.0","36","1","2025-01-25 16:35:38","af8d355d56820e421d246a7037deb6e6","88.209.235.181","Mozilla/5.0 (Windows NT 10.0; Win64; x64) AppleWebKit/537.36 (KHTML, like Gecko) Chrome/129.0.0.0 Safari/537.36","WebKit","Chrome","129.0.0.0","Windows","10.0","https://app.prolific.com/","en,en-US;q=0.9","677527596d51edae18442b1e","67949641171f97c04e14fb34","679512ccd1199325cc883497","","null","<img  src='G_3.jpg' height='90'> <img   src='G_5.jpg' height='90'> <img   src='G_1.jpg' height='90'> <img   src='G_9.jpg' height='90'> <img  src='G_7.jpg' height='90'>","null","Learning example 0",""
"","","","","","html-keyboard-response","72","254566","0.0-45.0","36","1","2025-01-25 16:35:38","af8d355d56820e421d246a7037deb6e6","88.209.235.181","Mozilla/5.0 (Windows NT 10.0; Win64; x64) AppleWebKit/537.36 (KHTML, like Gecko) Chrome/129.0.0.0 Safari/537.36","WebKit","Chrome","129.0.0.0","Windows","10.0","https://app.prolific.com/","en,en-US;q=0.9","677527596d51edae18442b1e","67949641171f97c04e14fb34","679512ccd1199325cc883497","","4929","[""Final order was 1,2,3,4,5. The initial order was 2,1,3,4,5.<br>It took 1 swaps to sort it correctly with Omgne Sort. <br><br>Press Enter to continue.""]","enter","",""
"","","","","","html-keyboard-response","73","256590","0.0-46.0","36","1","2025-01-25 16:35:38","af8d355d56820e421d246a7037deb6e6","88.209.235.181","Mozilla/5.0 (Windows NT 10.0; Win64; x64) AppleWebKit/537.36 (KHTML, like Gecko) Chrome/129.0.0.0 Safari/537.36","WebKit","Chrome","129.0.0.0","Windows","10.0","https://app.prolific.com/","en,en-US;q=0.9","677527596d51edae18442b1e","67949641171f97c04e14fb34","679512ccd1199325cc883497","","2022","[""Example 2<br><br>You will watch Omnge Sort in action. Try to identify any patterns in the comparisons made by this method. <br><br>Press Enter to continue.""]","enter","",""
"","","","","","html-keyboard-response","74","257093","0.0-47.0","36","1","2025-01-25 16:35:38","af8d355d56820e421d246a7037deb6e6","88.209.235.181","Mozilla/5.0 (Windows NT 10.0; Win64; x64) AppleWebKit/537.36 (KHTML, like Gecko) Chrome/129.0.0.0 Safari/537.36","WebKit","Chrome","129.0.0.0","Windows","10.0","https://app.prolific.com/","en,en-US;q=0.9","677527596d51edae18442b1e","67949641171f97c04e14fb34","679512ccd1199325cc883497","","null","<img id='selected' src='G_1.jpg' height='90'> <img src='G_2.jpg' height='90'> <img src='G_8.jpg' height='90'> <img src='G_3.jpg' height='90'> <img src='G_7.jpg' height='90'> <img src='G_6.jpg' height='90'> <img src='G_4.jpg' height='90'> <img src='G_5.jpg' height='90'>","null","Animation1",""
"","","","","","html-keyboard-response","75","257598","0.0-48.0","36","1","2025-01-25 16:35:38","af8d355d56820e421d246a7037deb6e6","88.209.235.181","Mozilla/5.0 (Windows NT 10.0; Win64; x64) AppleWebKit/537.36 (KHTML, like Gecko) Chrome/129.0.0.0 Safari/537.36","WebKit","Chrome","129.0.0.0","Windows","10.0","https://app.prolific.com/","en,en-US;q=0.9","677527596d51edae18442b1e","67949641171f97c04e14fb34","679512ccd1199325cc883497","","null","<img id='selected' src='G_1.jpg' height='90'> <img id='selected' src='G_2.jpg' height='90'> <img src='G_8.jpg' height='90'> <img src='G_3.jpg' height='90'> <img src='G_7.jpg' height='90'> <img src='G_6.jpg' height='90'> <img src='G_4.jpg' height='90'> <img src='G_5.jpg' height='90'>","null","Animation1",""
"","","","","","html-keyboard-response","76","258104","0.0-49.0","36","1","2025-01-25 16:35:38","af8d355d56820e421d246a7037deb6e6","88.209.235.181","Mozilla/5.0 (Windows NT 10.0; Win64; x64) AppleWebKit/537.36 (KHTML, like Gecko) Chrome/129.0.0.0 Safari/537.36","WebKit","Chrome","129.0.0.0","Windows","10.0","https://app.prolific.com/","en,en-US;q=0.9","677527596d51edae18442b1e","67949641171f97c04e14fb34","679512ccd1199325cc883497","","null","<img id='selected' src='G_1.jpg' height='90'> <img id='selected' src='G_2.jpg' height='90'> <img src='G_8.jpg' height='90'> <img src='G_3.jpg' height='90'> <img src='G_7.jpg' height='90'> <img src='G_6.jpg' height='90'> <img src='G_4.jpg' height='90'> <img src='G_5.jpg' height='90'>","null","Animation1",""
"","","","","","html-keyboard-response","77","258414","0.0-50.0","36","1","2025-01-25 16:35:38","af8d355d56820e421d246a7037deb6e6","88.209.235.181","Mozilla/5.0 (Windows NT 10.0; Win64; x64) AppleWebKit/537.36 (KHTML, like Gecko) Chrome/129.0.0.0 Safari/537.36","WebKit","Chrome","129.0.0.0","Windows","10.0","https://app.prolific.com/","en,en-US;q=0.9","677527596d51edae18442b1e","67949641171f97c04e14fb34","679512ccd1199325cc883497","","null","<img  src='G_1.jpg' height='90'> <img  src='G_2.jpg' height='90'> <img src='G_8.jpg' height='90'> <img src='G_3.jpg' height='90'> <img src='G_7.jpg' height='90'> <img src='G_6.jpg' height='90'> <img src='G_4.jpg' height='90'> <img src='G_5.jpg' height='90'>","null","Animation1",""
"","","","","","html-keyboard-response","78","258917","0.0-51.0","36","1","2025-01-25 16:35:38","af8d355d56820e421d246a7037deb6e6","88.209.235.181","Mozilla/5.0 (Windows NT 10.0; Win64; x64) AppleWebKit/537.36 (KHTML, like Gecko) Chrome/129.0.0.0 Safari/537.36","WebKit","Chrome","129.0.0.0","Windows","10.0","https://app.prolific.com/","en,en-US;q=0.9","677527596d51edae18442b1e","67949641171f97c04e14fb34","679512ccd1199325cc883497","","null","<img  src='G_1.jpg' height='90'> <img id='selected'  src='G_2.jpg' height='90'> <img src='G_8.jpg' height='90'> <img src='G_3.jpg' height='90'> <img src='G_7.jpg' height='90'> <img src='G_6.jpg' height='90'> <img src='G_4.jpg' height='90'> <img src='G_5.jpg' height='90'>","null","Animation1",""
"","","","","","html-keyboard-response","79","259421","0.0-52.0","36","1","2025-01-25 16:35:38","af8d355d56820e421d246a7037deb6e6","88.209.235.181","Mozilla/5.0 (Windows NT 10.0; Win64; x64) AppleWebKit/537.36 (KHTML, like Gecko) Chrome/129.0.0.0 Safari/537.36","WebKit","Chrome","129.0.0.0","Windows","10.0","https://app.prolific.com/","en,en-US;q=0.9","677527596d51edae18442b1e","67949641171f97c04e14fb34","679512ccd1199325cc883497","","null","<img  src='G_1.jpg' height='90'> <img id='selected'  src='G_2.jpg' height='90'> <img id='selected' src='G_8.jpg' height='90'> <img src='G_3.jpg' height='90'> <img src='G_7.jpg' height='90'> <img src='G_6.jpg' height='90'> <img src='G_4.jpg' height='90'> <img src='G_5.jpg' height='90'>","null","Animation1",""
"","","","","","html-keyboard-response","80","259925","0.0-53.0","36","1","2025-01-25 16:35:38","af8d355d56820e421d246a7037deb6e6","88.209.235.181","Mozilla/5.0 (Windows NT 10.0; Win64; x64) AppleWebKit/537.36 (KHTML, like Gecko) Chrome/129.0.0.0 Safari/537.36","WebKit","Chrome","129.0.0.0","Windows","10.0","https://app.prolific.com/","en,en-US;q=0.9","677527596d51edae18442b1e","67949641171f97c04e14fb34","679512ccd1199325cc883497","","null","<img  src='G_1.jpg' height='90'> <img id='swapped' src='G_8.jpg' height='90'> <img id='swapped'  src='G_2.jpg' height='90'> <img src='G_3.jpg' height='90'> <img src='G_7.jpg' height='90'> <img src='G_6.jpg' height='90'> <img src='G_4.jpg' height='90'> <img src='G_5.jpg' height='90'>","null","Animation1",""
"","","","","","html-keyboard-response","81","260227","0.0-54.0","36","1","2025-01-25 16:35:38","af8d355d56820e421d246a7037deb6e6","88.209.235.181","Mozilla/5.0 (Windows NT 10.0; Win64; x64) AppleWebKit/537.36 (KHTML, like Gecko) Chrome/129.0.0.0 Safari/537.36","WebKit","Chrome","129.0.0.0","Windows","10.0","https://app.prolific.com/","en,en-US;q=0.9","677527596d51edae18442b1e","67949641171f97c04e14fb34","679512ccd1199325cc883497","","null","<img  src='G_1.jpg' height='90'> <img  src='G_8.jpg' height='90'> <img   src='G_2.jpg' height='90'> <img src='G_3.jpg' height='90'> <img src='G_7.jpg' height='90'> <img src='G_6.jpg' height='90'> <img src='G_4.jpg' height='90'> <img src='G_5.jpg' height='90'>","null","Animation1",""
"","","","","","html-keyboard-response","82","260734","0.0-55.0","36","1","2025-01-25 16:35:38","af8d355d56820e421d246a7037deb6e6","88.209.235.181","Mozilla/5.0 (Windows NT 10.0; Win64; x64) AppleWebKit/537.36 (KHTML, like Gecko) Chrome/129.0.0.0 Safari/537.36","WebKit","Chrome","129.0.0.0","Windows","10.0","https://app.prolific.com/","en,en-US;q=0.9","677527596d51edae18442b1e","67949641171f97c04e14fb34","679512ccd1199325cc883497","","null","<img id='selected'  src='G_1.jpg' height='90'> <img  src='G_8.jpg' height='90'> <img   src='G_2.jpg' height='90'> <img src='G_3.jpg' height='90'> <img src='G_7.jpg' height='90'> <img src='G_6.jpg' height='90'> <img src='G_4.jpg' height='90'> <img src='G_5.jpg' height='90'>","null","Animation1",""
"","","","","","html-keyboard-response","83","261240","0.0-56.0","36","1","2025-01-25 16:35:38","af8d355d56820e421d246a7037deb6e6","88.209.235.181","Mozilla/5.0 (Windows NT 10.0; Win64; x64) AppleWebKit/537.36 (KHTML, like Gecko) Chrome/129.0.0.0 Safari/537.36","WebKit","Chrome","129.0.0.0","Windows","10.0","https://app.prolific.com/","en,en-US;q=0.9","677527596d51edae18442b1e","67949641171f97c04e14fb34","679512ccd1199325cc883497","","null","<img id='selected'  src='G_1.jpg' height='90'> <img id='selected'  src='G_8.jpg' height='90'> <img   src='G_2.jpg' height='90'> <img src='G_3.jpg' height='90'> <img src='G_7.jpg' height='90'> <img src='G_6.jpg' height='90'> <img src='G_4.jpg' height='90'> <img src='G_5.jpg' height='90'>","null","Animation1",""
"","","","","","html-keyboard-response","84","261747","0.0-57.0","36","1","2025-01-25 16:35:38","af8d355d56820e421d246a7037deb6e6","88.209.235.181","Mozilla/5.0 (Windows NT 10.0; Win64; x64) AppleWebKit/537.36 (KHTML, like Gecko) Chrome/129.0.0.0 Safari/537.36","WebKit","Chrome","129.0.0.0","Windows","10.0","https://app.prolific.com/","en,en-US;q=0.9","677527596d51edae18442b1e","67949641171f97c04e14fb34","679512ccd1199325cc883497","","null","<img id='swapped'  src='G_8.jpg' height='90'> <img id='swapped'  src='G_1.jpg' height='90'> <img   src='G_2.jpg' height='90'> <img src='G_3.jpg' height='90'> <img src='G_7.jpg' height='90'> <img src='G_6.jpg' height='90'> <img src='G_4.jpg' height='90'> <img src='G_5.jpg' height='90'>","null","Animation1",""
"","","","","","html-keyboard-response","85","262054","0.0-58.0","36","1","2025-01-25 16:35:38","af8d355d56820e421d246a7037deb6e6","88.209.235.181","Mozilla/5.0 (Windows NT 10.0; Win64; x64) AppleWebKit/537.36 (KHTML, like Gecko) Chrome/129.0.0.0 Safari/537.36","WebKit","Chrome","129.0.0.0","Windows","10.0","https://app.prolific.com/","en,en-US;q=0.9","677527596d51edae18442b1e","67949641171f97c04e14fb34","679512ccd1199325cc883497","","null","<img   src='G_8.jpg' height='90'> <img   src='G_1.jpg' height='90'> <img   src='G_2.jpg' height='90'> <img src='G_3.jpg' height='90'> <img src='G_7.jpg' height='90'> <img src='G_6.jpg' height='90'> <img src='G_4.jpg' height='90'> <img src='G_5.jpg' height='90'>","null","Animation1",""
"","","","","","html-keyboard-response","86","262560","0.0-59.0","36","1","2025-01-25 16:35:38","af8d355d56820e421d246a7037deb6e6","88.209.235.181","Mozilla/5.0 (Windows NT 10.0; Win64; x64) AppleWebKit/537.36 (KHTML, like Gecko) Chrome/129.0.0.0 Safari/537.36","WebKit","Chrome","129.0.0.0","Windows","10.0","https://app.prolific.com/","en,en-US;q=0.9","677527596d51edae18442b1e","67949641171f97c04e14fb34","679512ccd1199325cc883497","","null","<img   src='G_8.jpg' height='90'> <img   src='G_1.jpg' height='90'> <img id='selected'   src='G_2.jpg' height='90'> <img src='G_3.jpg' height='90'> <img src='G_7.jpg' height='90'> <img src='G_6.jpg' height='90'> <img src='G_4.jpg' height='90'> <img src='G_5.jpg' height='90'>","null","Animation1",""
"","","","","","html-keyboard-response","87","263065","0.0-60.0","36","1","2025-01-25 16:35:38","af8d355d56820e421d246a7037deb6e6","88.209.235.181","Mozilla/5.0 (Windows NT 10.0; Win64; x64) AppleWebKit/537.36 (KHTML, like Gecko) Chrome/129.0.0.0 Safari/537.36","WebKit","Chrome","129.0.0.0","Windows","10.0","https://app.prolific.com/","en,en-US;q=0.9","677527596d51edae18442b1e","67949641171f97c04e14fb34","679512ccd1199325cc883497","","null","<img   src='G_8.jpg' height='90'> <img   src='G_1.jpg' height='90'> <img id='selected'   src='G_2.jpg' height='90'> <img id='selected' src='G_3.jpg' height='90'> <img src='G_7.jpg' height='90'> <img src='G_6.jpg' height='90'> <img src='G_4.jpg' height='90'> <img src='G_5.jpg' height='90'>","null","Animation1",""
"","","","","","html-keyboard-response","88","263570","0.0-61.0","36","1","2025-01-25 16:35:38","af8d355d56820e421d246a7037deb6e6","88.209.235.181","Mozilla/5.0 (Windows NT 10.0; Win64; x64) AppleWebKit/537.36 (KHTML, like Gecko) Chrome/129.0.0.0 Safari/537.36","WebKit","Chrome","129.0.0.0","Windows","10.0","https://app.prolific.com/","en,en-US;q=0.9","677527596d51edae18442b1e","67949641171f97c04e14fb34","679512ccd1199325cc883497","","null","<img   src='G_8.jpg' height='90'> <img   src='G_1.jpg' height='90'> <img id='swapped' src='G_3.jpg' height='90'> <img id='swapped'   src='G_2.jpg' height='90'> <img src='G_7.jpg' height='90'> <img src='G_6.jpg' height='90'> <img src='G_4.jpg' height='90'> <img src='G_5.jpg' height='90'>","null","Animation1",""
"","","","","","html-keyboard-response","89","263876","0.0-62.0","36","1","2025-01-25 16:35:38","af8d355d56820e421d246a7037deb6e6","88.209.235.181","Mozilla/5.0 (Windows NT 10.0; Win64; x64) AppleWebKit/537.36 (KHTML, like Gecko) Chrome/129.0.0.0 Safari/537.36","WebKit","Chrome","129.0.0.0","Windows","10.0","https://app.prolific.com/","en,en-US;q=0.9","677527596d51edae18442b1e","67949641171f97c04e14fb34","679512ccd1199325cc883497","","null","<img   src='G_8.jpg' height='90'> <img   src='G_1.jpg' height='90'> <img  src='G_3.jpg' height='90'> <img    src='G_2.jpg' height='90'> <img src='G_7.jpg' height='90'> <img src='G_6.jpg' height='90'> <img src='G_4.jpg' height='90'> <img src='G_5.jpg' height='90'>","null","Animation1",""
"","","","","","html-keyboard-response","90","264384","0.0-63.0","36","1","2025-01-25 16:35:38","af8d355d56820e421d246a7037deb6e6","88.209.235.181","Mozilla/5.0 (Windows NT 10.0; Win64; x64) AppleWebKit/537.36 (KHTML, like Gecko) Chrome/129.0.0.0 Safari/537.36","WebKit","Chrome","129.0.0.0","Windows","10.0","https://app.prolific.com/","en,en-US;q=0.9","677527596d51edae18442b1e","67949641171f97c04e14fb34","679512ccd1199325cc883497","","null","<img   src='G_8.jpg' height='90'> <img id='selected'   src='G_1.jpg' height='90'> <img  src='G_3.jpg' height='90'> <img    src='G_2.jpg' height='90'> <img src='G_7.jpg' height='90'> <img src='G_6.jpg' height='90'> <img src='G_4.jpg' height='90'> <img src='G_5.jpg' height='90'>","null","Animation1",""
"","","","","","html-keyboard-response","91","264890","0.0-64.0","36","1","2025-01-25 16:35:38","af8d355d56820e421d246a7037deb6e6","88.209.235.181","Mozilla/5.0 (Windows NT 10.0; Win64; x64) AppleWebKit/537.36 (KHTML, like Gecko) Chrome/129.0.0.0 Safari/537.36","WebKit","Chrome","129.0.0.0","Windows","10.0","https://app.prolific.com/","en,en-US;q=0.9","677527596d51edae18442b1e","67949641171f97c04e14fb34","679512ccd1199325cc883497","","null","<img   src='G_8.jpg' height='90'> <img id='selected'   src='G_1.jpg' height='90'> <img id='selected'  src='G_3.jpg' height='90'> <img    src='G_2.jpg' height='90'> <img src='G_7.jpg' height='90'> <img src='G_6.jpg' height='90'> <img src='G_4.jpg' height='90'> <img src='G_5.jpg' height='90'>","null","Animation1",""
"","","","","","html-keyboard-response","92","265394","0.0-65.0","36","1","2025-01-25 16:35:38","af8d355d56820e421d246a7037deb6e6","88.209.235.181","Mozilla/5.0 (Windows NT 10.0; Win64; x64) AppleWebKit/537.36 (KHTML, like Gecko) Chrome/129.0.0.0 Safari/537.36","WebKit","Chrome","129.0.0.0","Windows","10.0","https://app.prolific.com/","en,en-US;q=0.9","677527596d51edae18442b1e","67949641171f97c04e14fb34","679512ccd1199325cc883497","","null","<img   src='G_8.jpg' height='90'> <img id='swapped'  src='G_3.jpg' height='90'> <img id='swapped'   src='G_1.jpg' height='90'> <img    src='G_2.jpg' height='90'> <img src='G_7.jpg' height='90'> <img src='G_6.jpg' height='90'> <img src='G_4.jpg' height='90'> <img src='G_5.jpg' height='90'>","null","Animation1",""
"","","","","","html-keyboard-response","93","265700","0.0-66.0","36","1","2025-01-25 16:35:38","af8d355d56820e421d246a7037deb6e6","88.209.235.181","Mozilla/5.0 (Windows NT 10.0; Win64; x64) AppleWebKit/537.36 (KHTML, like Gecko) Chrome/129.0.0.0 Safari/537.36","WebKit","Chrome","129.0.0.0","Windows","10.0","https://app.prolific.com/","en,en-US;q=0.9","677527596d51edae18442b1e","67949641171f97c04e14fb34","679512ccd1199325cc883497","","null","<img   src='G_8.jpg' height='90'> <img   src='G_3.jpg' height='90'> <img    src='G_1.jpg' height='90'> <img    src='G_2.jpg' height='90'> <img src='G_7.jpg' height='90'> <img src='G_6.jpg' height='90'> <img src='G_4.jpg' height='90'> <img src='G_5.jpg' height='90'>","null","Animation1",""
"","","","","","html-keyboard-response","94","266206","0.0-67.0","36","1","2025-01-25 16:35:38","af8d355d56820e421d246a7037deb6e6","88.209.235.181","Mozilla/5.0 (Windows NT 10.0; Win64; x64) AppleWebKit/537.36 (KHTML, like Gecko) Chrome/129.0.0.0 Safari/537.36","WebKit","Chrome","129.0.0.0","Windows","10.0","https://app.prolific.com/","en,en-US;q=0.9","677527596d51edae18442b1e","67949641171f97c04e14fb34","679512ccd1199325cc883497","","null","<img id='selected'   src='G_8.jpg' height='90'> <img   src='G_3.jpg' height='90'> <img    src='G_1.jpg' height='90'> <img    src='G_2.jpg' height='90'> <img src='G_7.jpg' height='90'> <img src='G_6.jpg' height='90'> <img src='G_4.jpg' height='90'> <img src='G_5.jpg' height='90'>","null","Animation1",""
"","","","","","html-keyboard-response","95","266714","0.0-68.0","36","1","2025-01-25 16:35:38","af8d355d56820e421d246a7037deb6e6","88.209.235.181","Mozilla/5.0 (Windows NT 10.0; Win64; x64) AppleWebKit/537.36 (KHTML, like Gecko) Chrome/129.0.0.0 Safari/537.36","WebKit","Chrome","129.0.0.0","Windows","10.0","https://app.prolific.com/","en,en-US;q=0.9","677527596d51edae18442b1e","67949641171f97c04e14fb34","679512ccd1199325cc883497","","null","<img id='selected'   src='G_8.jpg' height='90'> <img id='selected'   src='G_3.jpg' height='90'> <img    src='G_1.jpg' height='90'> <img    src='G_2.jpg' height='90'> <img src='G_7.jpg' height='90'> <img src='G_6.jpg' height='90'> <img src='G_4.jpg' height='90'> <img src='G_5.jpg' height='90'>","null","Animation1",""
"","","","","","html-keyboard-response","96","267231","0.0-69.0","36","1","2025-01-25 16:35:38","af8d355d56820e421d246a7037deb6e6","88.209.235.181","Mozilla/5.0 (Windows NT 10.0; Win64; x64) AppleWebKit/537.36 (KHTML, like Gecko) Chrome/129.0.0.0 Safari/537.36","WebKit","Chrome","129.0.0.0","Windows","10.0","https://app.prolific.com/","en,en-US;q=0.9","677527596d51edae18442b1e","67949641171f97c04e14fb34","679512ccd1199325cc883497","","null","<img id='swapped'   src='G_3.jpg' height='90'> <img id='swapped'   src='G_8.jpg' height='90'> <img    src='G_1.jpg' height='90'> <img    src='G_2.jpg' height='90'> <img src='G_7.jpg' height='90'> <img src='G_6.jpg' height='90'> <img src='G_4.jpg' height='90'> <img src='G_5.jpg' height='90'>","null","Animation1",""
"","","","","","html-keyboard-response","97","267537","0.0-70.0","36","1","2025-01-25 16:35:38","af8d355d56820e421d246a7037deb6e6","88.209.235.181","Mozilla/5.0 (Windows NT 10.0; Win64; x64) AppleWebKit/537.36 (KHTML, like Gecko) Chrome/129.0.0.0 Safari/537.36","WebKit","Chrome","129.0.0.0","Windows","10.0","https://app.prolific.com/","en,en-US;q=0.9","677527596d51edae18442b1e","67949641171f97c04e14fb34","679512ccd1199325cc883497","","null","<img    src='G_3.jpg' height='90'> <img    src='G_8.jpg' height='90'> <img    src='G_1.jpg' height='90'> <img    src='G_2.jpg' height='90'> <img src='G_7.jpg' height='90'> <img src='G_6.jpg' height='90'> <img src='G_4.jpg' height='90'> <img src='G_5.jpg' height='90'>","null","Animation1",""
"","","","","","html-keyboard-response","98","268042","0.0-71.0","36","1","2025-01-25 16:35:38","af8d355d56820e421d246a7037deb6e6","88.209.235.181","Mozilla/5.0 (Windows NT 10.0; Win64; x64) AppleWebKit/537.36 (KHTML, like Gecko) Chrome/129.0.0.0 Safari/537.36","WebKit","Chrome","129.0.0.0","Windows","10.0","https://app.prolific.com/","en,en-US;q=0.9","677527596d51edae18442b1e","67949641171f97c04e14fb34","679512ccd1199325cc883497","","null","<img    src='G_3.jpg' height='90'> <img    src='G_8.jpg' height='90'> <img    src='G_1.jpg' height='90'> <img id='selected'    src='G_2.jpg' height='90'> <img src='G_7.jpg' height='90'> <img src='G_6.jpg' height='90'> <img src='G_4.jpg' height='90'> <img src='G_5.jpg' height='90'>","null","Animation1",""
"","","","","","html-keyboard-response","99","268547","0.0-72.0","36","1","2025-01-25 16:35:38","af8d355d56820e421d246a7037deb6e6","88.209.235.181","Mozilla/5.0 (Windows NT 10.0; Win64; x64) AppleWebKit/537.36 (KHTML, like Gecko) Chrome/129.0.0.0 Safari/537.36","WebKit","Chrome","129.0.0.0","Windows","10.0","https://app.prolific.com/","en,en-US;q=0.9","677527596d51edae18442b1e","67949641171f97c04e14fb34","679512ccd1199325cc883497","","null","<img    src='G_3.jpg' height='90'> <img    src='G_8.jpg' height='90'> <img    src='G_1.jpg' height='90'> <img id='selected'    src='G_2.jpg' height='90'> <img id='selected' src='G_7.jpg' height='90'> <img src='G_6.jpg' height='90'> <img src='G_4.jpg' height='90'> <img src='G_5.jpg' height='90'>","null","Animation1",""
"","","","","","html-keyboard-response","100","269053","0.0-73.0","36","1","2025-01-25 16:35:38","af8d355d56820e421d246a7037deb6e6","88.209.235.181","Mozilla/5.0 (Windows NT 10.0; Win64; x64) AppleWebKit/537.36 (KHTML, like Gecko) Chrome/129.0.0.0 Safari/537.36","WebKit","Chrome","129.0.0.0","Windows","10.0","https://app.prolific.com/","en,en-US;q=0.9","677527596d51edae18442b1e","67949641171f97c04e14fb34","679512ccd1199325cc883497","","null","<img    src='G_3.jpg' height='90'> <img    src='G_8.jpg' height='90'> <img    src='G_1.jpg' height='90'> <img id='swapped' src='G_7.jpg' height='90'> <img id='swapped'    src='G_2.jpg' height='90'> <img src='G_6.jpg' height='90'> <img src='G_4.jpg' height='90'> <img src='G_5.jpg' height='90'>","null","Animation1",""
"","","","","","html-keyboard-response","101","269360","0.0-74.0","36","1","2025-01-25 16:35:38","af8d355d56820e421d246a7037deb6e6","88.209.235.181","Mozilla/5.0 (Windows NT 10.0; Win64; x64) AppleWebKit/537.36 (KHTML, like Gecko) Chrome/129.0.0.0 Safari/537.36","WebKit","Chrome","129.0.0.0","Windows","10.0","https://app.prolific.com/","en,en-US;q=0.9","677527596d51edae18442b1e","67949641171f97c04e14fb34","679512ccd1199325cc883497","","null","<img    src='G_3.jpg' height='90'> <img    src='G_8.jpg' height='90'> <img    src='G_1.jpg' height='90'> <img  src='G_7.jpg' height='90'> <img     src='G_2.jpg' height='90'> <img src='G_6.jpg' height='90'> <img src='G_4.jpg' height='90'> <img src='G_5.jpg' height='90'>","null","Animation1",""
"","","","","","html-keyboard-response","102","269865","0.0-75.0","36","1","2025-01-25 16:35:38","af8d355d56820e421d246a7037deb6e6","88.209.235.181","Mozilla/5.0 (Windows NT 10.0; Win64; x64) AppleWebKit/537.36 (KHTML, like Gecko) Chrome/129.0.0.0 Safari/537.36","WebKit","Chrome","129.0.0.0","Windows","10.0","https://app.prolific.com/","en,en-US;q=0.9","677527596d51edae18442b1e","67949641171f97c04e14fb34","679512ccd1199325cc883497","","null","<img    src='G_3.jpg' height='90'> <img    src='G_8.jpg' height='90'> <img id='selected'    src='G_1.jpg' height='90'> <img  src='G_7.jpg' height='90'> <img     src='G_2.jpg' height='90'> <img src='G_6.jpg' height='90'> <img src='G_4.jpg' height='90'> <img src='G_5.jpg' height='90'>","null","Animation1",""
"","","","","","html-keyboard-response","103","270372","0.0-76.0","36","1","2025-01-25 16:35:38","af8d355d56820e421d246a7037deb6e6","88.209.235.181","Mozilla/5.0 (Windows NT 10.0; Win64; x64) AppleWebKit/537.36 (KHTML, like Gecko) Chrome/129.0.0.0 Safari/537.36","WebKit","Chrome","129.0.0.0","Windows","10.0","https://app.prolific.com/","en,en-US;q=0.9","677527596d51edae18442b1e","67949641171f97c04e14fb34","679512ccd1199325cc883497","","null","<img    src='G_3.jpg' height='90'> <img    src='G_8.jpg' height='90'> <img id='selected'    src='G_1.jpg' height='90'> <img id='selected'  src='G_7.jpg' height='90'> <img     src='G_2.jpg' height='90'> <img src='G_6.jpg' height='90'> <img src='G_4.jpg' height='90'> <img src='G_5.jpg' height='90'>","null","Animation1",""
"","","","","","html-keyboard-response","104","270878","0.0-77.0","36","1","2025-01-25 16:35:38","af8d355d56820e421d246a7037deb6e6","88.209.235.181","Mozilla/5.0 (Windows NT 10.0; Win64; x64) AppleWebKit/537.36 (KHTML, like Gecko) Chrome/129.0.0.0 Safari/537.36","WebKit","Chrome","129.0.0.0","Windows","10.0","https://app.prolific.com/","en,en-US;q=0.9","677527596d51edae18442b1e","67949641171f97c04e14fb34","679512ccd1199325cc883497","","null","<img    src='G_3.jpg' height='90'> <img    src='G_8.jpg' height='90'> <img id='swapped'  src='G_7.jpg' height='90'> <img id='swapped'    src='G_1.jpg' height='90'> <img     src='G_2.jpg' height='90'> <img src='G_6.jpg' height='90'> <img src='G_4.jpg' height='90'> <img src='G_5.jpg' height='90'>","null","Animation1",""
"","","","","","html-keyboard-response","105","271184","0.0-78.0","36","1","2025-01-25 16:35:38","af8d355d56820e421d246a7037deb6e6","88.209.235.181","Mozilla/5.0 (Windows NT 10.0; Win64; x64) AppleWebKit/537.36 (KHTML, like Gecko) Chrome/129.0.0.0 Safari/537.36","WebKit","Chrome","129.0.0.0","Windows","10.0","https://app.prolific.com/","en,en-US;q=0.9","677527596d51edae18442b1e","67949641171f97c04e14fb34","679512ccd1199325cc883497","","null","<img    src='G_3.jpg' height='90'> <img    src='G_8.jpg' height='90'> <img   src='G_7.jpg' height='90'> <img     src='G_1.jpg' height='90'> <img     src='G_2.jpg' height='90'> <img src='G_6.jpg' height='90'> <img src='G_4.jpg' height='90'> <img src='G_5.jpg' height='90'>","null","Animation1",""
"","","","","","html-keyboard-response","106","271691","0.0-79.0","36","1","2025-01-25 16:35:38","af8d355d56820e421d246a7037deb6e6","88.209.235.181","Mozilla/5.0 (Windows NT 10.0; Win64; x64) AppleWebKit/537.36 (KHTML, like Gecko) Chrome/129.0.0.0 Safari/537.36","WebKit","Chrome","129.0.0.0","Windows","10.0","https://app.prolific.com/","en,en-US;q=0.9","677527596d51edae18442b1e","67949641171f97c04e14fb34","679512ccd1199325cc883497","","null","<img    src='G_3.jpg' height='90'> <img id='selected'    src='G_8.jpg' height='90'> <img   src='G_7.jpg' height='90'> <img     src='G_1.jpg' height='90'> <img     src='G_2.jpg' height='90'> <img src='G_6.jpg' height='90'> <img src='G_4.jpg' height='90'> <img src='G_5.jpg' height='90'>","null","Animation1",""
"","","","","","html-keyboard-response","107","272194","0.0-80.0","36","1","2025-01-25 16:35:38","af8d355d56820e421d246a7037deb6e6","88.209.235.181","Mozilla/5.0 (Windows NT 10.0; Win64; x64) AppleWebKit/537.36 (KHTML, like Gecko) Chrome/129.0.0.0 Safari/537.36","WebKit","Chrome","129.0.0.0","Windows","10.0","https://app.prolific.com/","en,en-US;q=0.9","677527596d51edae18442b1e","67949641171f97c04e14fb34","679512ccd1199325cc883497","","null","<img    src='G_3.jpg' height='90'> <img id='selected'    src='G_8.jpg' height='90'> <img id='selected'   src='G_7.jpg' height='90'> <img     src='G_1.jpg' height='90'> <img     src='G_2.jpg' height='90'> <img src='G_6.jpg' height='90'> <img src='G_4.jpg' height='90'> <img src='G_5.jpg' height='90'>","null","Animation1",""
"","","","","","html-keyboard-response","108","272701","0.0-81.0","36","1","2025-01-25 16:35:38","af8d355d56820e421d246a7037deb6e6","88.209.235.181","Mozilla/5.0 (Windows NT 10.0; Win64; x64) AppleWebKit/537.36 (KHTML, like Gecko) Chrome/129.0.0.0 Safari/537.36","WebKit","Chrome","129.0.0.0","Windows","10.0","https://app.prolific.com/","en,en-US;q=0.9","677527596d51edae18442b1e","67949641171f97c04e14fb34","679512ccd1199325cc883497","","null","<img    src='G_3.jpg' height='90'> <img id='swapped'   src='G_7.jpg' height='90'> <img id='swapped'    src='G_8.jpg' height='90'> <img     src='G_1.jpg' height='90'> <img     src='G_2.jpg' height='90'> <img src='G_6.jpg' height='90'> <img src='G_4.jpg' height='90'> <img src='G_5.jpg' height='90'>","null","Animation1",""
"","","","","","html-keyboard-response","109","273008","0.0-82.0","36","1","2025-01-25 16:35:38","af8d355d56820e421d246a7037deb6e6","88.209.235.181","Mozilla/5.0 (Windows NT 10.0; Win64; x64) AppleWebKit/537.36 (KHTML, like Gecko) Chrome/129.0.0.0 Safari/537.36","WebKit","Chrome","129.0.0.0","Windows","10.0","https://app.prolific.com/","en,en-US;q=0.9","677527596d51edae18442b1e","67949641171f97c04e14fb34","679512ccd1199325cc883497","","null","<img    src='G_3.jpg' height='90'> <img    src='G_7.jpg' height='90'> <img     src='G_8.jpg' height='90'> <img     src='G_1.jpg' height='90'> <img     src='G_2.jpg' height='90'> <img src='G_6.jpg' height='90'> <img src='G_4.jpg' height='90'> <img src='G_5.jpg' height='90'>","null","Animation1",""
"","","","","","html-keyboard-response","110","273515","0.0-83.0","36","1","2025-01-25 16:35:38","af8d355d56820e421d246a7037deb6e6","88.209.235.181","Mozilla/5.0 (Windows NT 10.0; Win64; x64) AppleWebKit/537.36 (KHTML, like Gecko) Chrome/129.0.0.0 Safari/537.36","WebKit","Chrome","129.0.0.0","Windows","10.0","https://app.prolific.com/","en,en-US;q=0.9","677527596d51edae18442b1e","67949641171f97c04e14fb34","679512ccd1199325cc883497","","null","<img id='selected'    src='G_3.jpg' height='90'> <img    src='G_7.jpg' height='90'> <img     src='G_8.jpg' height='90'> <img     src='G_1.jpg' height='90'> <img     src='G_2.jpg' height='90'> <img src='G_6.jpg' height='90'> <img src='G_4.jpg' height='90'> <img src='G_5.jpg' height='90'>","null","Animation1",""
"","","","","","html-keyboard-response","111","274022","0.0-84.0","36","1","2025-01-25 16:35:38","af8d355d56820e421d246a7037deb6e6","88.209.235.181","Mozilla/5.0 (Windows NT 10.0; Win64; x64) AppleWebKit/537.36 (KHTML, like Gecko) Chrome/129.0.0.0 Safari/537.36","WebKit","Chrome","129.0.0.0","Windows","10.0","https://app.prolific.com/","en,en-US;q=0.9","677527596d51edae18442b1e","67949641171f97c04e14fb34","679512ccd1199325cc883497","","null","<img id='selected'    src='G_3.jpg' height='90'> <img id='selected'    src='G_7.jpg' height='90'> <img     src='G_8.jpg' height='90'> <img     src='G_1.jpg' height='90'> <img     src='G_2.jpg' height='90'> <img src='G_6.jpg' height='90'> <img src='G_4.jpg' height='90'> <img src='G_5.jpg' height='90'>","null","Animation1",""
"","","","","","html-keyboard-response","112","274529","0.0-85.0","36","1","2025-01-25 16:35:38","af8d355d56820e421d246a7037deb6e6","88.209.235.181","Mozilla/5.0 (Windows NT 10.0; Win64; x64) AppleWebKit/537.36 (KHTML, like Gecko) Chrome/129.0.0.0 Safari/537.36","WebKit","Chrome","129.0.0.0","Windows","10.0","https://app.prolific.com/","en,en-US;q=0.9","677527596d51edae18442b1e","67949641171f97c04e14fb34","679512ccd1199325cc883497","","null","<img id='selected'    src='G_3.jpg' height='90'> <img id='selected'    src='G_7.jpg' height='90'> <img     src='G_8.jpg' height='90'> <img     src='G_1.jpg' height='90'> <img     src='G_2.jpg' height='90'> <img src='G_6.jpg' height='90'> <img src='G_4.jpg' height='90'> <img src='G_5.jpg' height='90'>","null","Animation1",""
"","","","","","html-keyboard-response","113","274835","0.0-86.0","36","1","2025-01-25 16:35:38","af8d355d56820e421d246a7037deb6e6","88.209.235.181","Mozilla/5.0 (Windows NT 10.0; Win64; x64) AppleWebKit/537.36 (KHTML, like Gecko) Chrome/129.0.0.0 Safari/537.36","WebKit","Chrome","129.0.0.0","Windows","10.0","https://app.prolific.com/","en,en-US;q=0.9","677527596d51edae18442b1e","67949641171f97c04e14fb34","679512ccd1199325cc883497","","null","<img     src='G_3.jpg' height='90'> <img     src='G_7.jpg' height='90'> <img     src='G_8.jpg' height='90'> <img     src='G_1.jpg' height='90'> <img     src='G_2.jpg' height='90'> <img src='G_6.jpg' height='90'> <img src='G_4.jpg' height='90'> <img src='G_5.jpg' height='90'>","null","Animation1",""
"","","","","","html-keyboard-response","114","275342","0.0-87.0","36","1","2025-01-25 16:35:38","af8d355d56820e421d246a7037deb6e6","88.209.235.181","Mozilla/5.0 (Windows NT 10.0; Win64; x64) AppleWebKit/537.36 (KHTML, like Gecko) Chrome/129.0.0.0 Safari/537.36","WebKit","Chrome","129.0.0.0","Windows","10.0","https://app.prolific.com/","en,en-US;q=0.9","677527596d51edae18442b1e","67949641171f97c04e14fb34","679512ccd1199325cc883497","","null","<img     src='G_3.jpg' height='90'> <img     src='G_7.jpg' height='90'> <img     src='G_8.jpg' height='90'> <img     src='G_1.jpg' height='90'> <img id='selected'     src='G_2.jpg' height='90'> <img src='G_6.jpg' height='90'> <img src='G_4.jpg' height='90'> <img src='G_5.jpg' height='90'>","null","Animation1",""
"","","","","","html-keyboard-response","115","275848","0.0-88.0","36","1","2025-01-25 16:35:38","af8d355d56820e421d246a7037deb6e6","88.209.235.181","Mozilla/5.0 (Windows NT 10.0; Win64; x64) AppleWebKit/537.36 (KHTML, like Gecko) Chrome/129.0.0.0 Safari/537.36","WebKit","Chrome","129.0.0.0","Windows","10.0","https://app.prolific.com/","en,en-US;q=0.9","677527596d51edae18442b1e","67949641171f97c04e14fb34","679512ccd1199325cc883497","","null","<img     src='G_3.jpg' height='90'> <img     src='G_7.jpg' height='90'> <img     src='G_8.jpg' height='90'> <img     src='G_1.jpg' height='90'> <img id='selected'     src='G_2.jpg' height='90'> <img id='selected' src='G_6.jpg' height='90'> <img src='G_4.jpg' height='90'> <img src='G_5.jpg' height='90'>","null","Animation1",""
"","","","","","html-keyboard-response","116","276351","0.0-89.0","36","1","2025-01-25 16:35:38","af8d355d56820e421d246a7037deb6e6","88.209.235.181","Mozilla/5.0 (Windows NT 10.0; Win64; x64) AppleWebKit/537.36 (KHTML, like Gecko) Chrome/129.0.0.0 Safari/537.36","WebKit","Chrome","129.0.0.0","Windows","10.0","https://app.prolific.com/","en,en-US;q=0.9","677527596d51edae18442b1e","67949641171f97c04e14fb34","679512ccd1199325cc883497","","null","<img     src='G_3.jpg' height='90'> <img     src='G_7.jpg' height='90'> <img     src='G_8.jpg' height='90'> <img     src='G_1.jpg' height='90'> <img id='swapped' src='G_6.jpg' height='90'> <img id='swapped'     src='G_2.jpg' height='90'> <img src='G_4.jpg' height='90'> <img src='G_5.jpg' height='90'>","null","Animation1",""
"","","","","","html-keyboard-response","117","276658","0.0-90.0","36","1","2025-01-25 16:35:38","af8d355d56820e421d246a7037deb6e6","88.209.235.181","Mozilla/5.0 (Windows NT 10.0; Win64; x64) AppleWebKit/537.36 (KHTML, like Gecko) Chrome/129.0.0.0 Safari/537.36","WebKit","Chrome","129.0.0.0","Windows","10.0","https://app.prolific.com/","en,en-US;q=0.9","677527596d51edae18442b1e","67949641171f97c04e14fb34","679512ccd1199325cc883497","","null","<img     src='G_3.jpg' height='90'> <img     src='G_7.jpg' height='90'> <img     src='G_8.jpg' height='90'> <img     src='G_1.jpg' height='90'> <img  src='G_6.jpg' height='90'> <img      src='G_2.jpg' height='90'> <img src='G_4.jpg' height='90'> <img src='G_5.jpg' height='90'>","null","Animation1",""
"","","","","","html-keyboard-response","118","277164","0.0-91.0","36","1","2025-01-25 16:35:38","af8d355d56820e421d246a7037deb6e6","88.209.235.181","Mozilla/5.0 (Windows NT 10.0; Win64; x64) AppleWebKit/537.36 (KHTML, like Gecko) Chrome/129.0.0.0 Safari/537.36","WebKit","Chrome","129.0.0.0","Windows","10.0","https://app.prolific.com/","en,en-US;q=0.9","677527596d51edae18442b1e","67949641171f97c04e14fb34","679512ccd1199325cc883497","","null","<img     src='G_3.jpg' height='90'> <img     src='G_7.jpg' height='90'> <img     src='G_8.jpg' height='90'> <img id='selected'     src='G_1.jpg' height='90'> <img  src='G_6.jpg' height='90'> <img      src='G_2.jpg' height='90'> <img src='G_4.jpg' height='90'> <img src='G_5.jpg' height='90'>","null","Animation1",""
"","","","","","html-keyboard-response","119","277671","0.0-92.0","36","1","2025-01-25 16:35:38","af8d355d56820e421d246a7037deb6e6","88.209.235.181","Mozilla/5.0 (Windows NT 10.0; Win64; x64) AppleWebKit/537.36 (KHTML, like Gecko) Chrome/129.0.0.0 Safari/537.36","WebKit","Chrome","129.0.0.0","Windows","10.0","https://app.prolific.com/","en,en-US;q=0.9","677527596d51edae18442b1e","67949641171f97c04e14fb34","679512ccd1199325cc883497","","null","<img     src='G_3.jpg' height='90'> <img     src='G_7.jpg' height='90'> <img     src='G_8.jpg' height='90'> <img id='selected'     src='G_1.jpg' height='90'> <img id='selected'  src='G_6.jpg' height='90'> <img      src='G_2.jpg' height='90'> <img src='G_4.jpg' height='90'> <img src='G_5.jpg' height='90'>","null","Animation1",""
"","","","","","html-keyboard-response","120","278178","0.0-93.0","36","1","2025-01-25 16:35:38","af8d355d56820e421d246a7037deb6e6","88.209.235.181","Mozilla/5.0 (Windows NT 10.0; Win64; x64) AppleWebKit/537.36 (KHTML, like Gecko) Chrome/129.0.0.0 Safari/537.36","WebKit","Chrome","129.0.0.0","Windows","10.0","https://app.prolific.com/","en,en-US;q=0.9","677527596d51edae18442b1e","67949641171f97c04e14fb34","679512ccd1199325cc883497","","null","<img     src='G_3.jpg' height='90'> <img     src='G_7.jpg' height='90'> <img     src='G_8.jpg' height='90'> <img id='selected'     src='G_1.jpg' height='90'> <img id='selected'  src='G_6.jpg' height='90'> <img      src='G_2.jpg' height='90'> <img src='G_4.jpg' height='90'> <img src='G_5.jpg' height='90'>","null","Animation1",""
"","","","","","html-keyboard-response","121","278486","0.0-94.0","36","1","2025-01-25 16:35:38","af8d355d56820e421d246a7037deb6e6","88.209.235.181","Mozilla/5.0 (Windows NT 10.0; Win64; x64) AppleWebKit/537.36 (KHTML, like Gecko) Chrome/129.0.0.0 Safari/537.36","WebKit","Chrome","129.0.0.0","Windows","10.0","https://app.prolific.com/","en,en-US;q=0.9","677527596d51edae18442b1e","67949641171f97c04e14fb34","679512ccd1199325cc883497","","null","<img     src='G_3.jpg' height='90'> <img     src='G_7.jpg' height='90'> <img     src='G_8.jpg' height='90'> <img      src='G_1.jpg' height='90'> <img   src='G_6.jpg' height='90'> <img      src='G_2.jpg' height='90'> <img src='G_4.jpg' height='90'> <img src='G_5.jpg' height='90'>","null","Animation1",""
"","","","","","html-keyboard-response","122","278994","0.0-95.0","36","1","2025-01-25 16:35:38","af8d355d56820e421d246a7037deb6e6","88.209.235.181","Mozilla/5.0 (Windows NT 10.0; Win64; x64) AppleWebKit/537.36 (KHTML, like Gecko) Chrome/129.0.0.0 Safari/537.36","WebKit","Chrome","129.0.0.0","Windows","10.0","https://app.prolific.com/","en,en-US;q=0.9","677527596d51edae18442b1e","67949641171f97c04e14fb34","679512ccd1199325cc883497","","null","<img     src='G_3.jpg' height='90'> <img     src='G_7.jpg' height='90'> <img     src='G_8.jpg' height='90'> <img      src='G_1.jpg' height='90'> <img   src='G_6.jpg' height='90'> <img id='selected'      src='G_2.jpg' height='90'> <img src='G_4.jpg' height='90'> <img src='G_5.jpg' height='90'>","null","Animation1",""
"","","","","","html-keyboard-response","123","279501","0.0-96.0","36","1","2025-01-25 16:35:38","af8d355d56820e421d246a7037deb6e6","88.209.235.181","Mozilla/5.0 (Windows NT 10.0; Win64; x64) AppleWebKit/537.36 (KHTML, like Gecko) Chrome/129.0.0.0 Safari/537.36","WebKit","Chrome","129.0.0.0","Windows","10.0","https://app.prolific.com/","en,en-US;q=0.9","677527596d51edae18442b1e","67949641171f97c04e14fb34","679512ccd1199325cc883497","","null","<img     src='G_3.jpg' height='90'> <img     src='G_7.jpg' height='90'> <img     src='G_8.jpg' height='90'> <img      src='G_1.jpg' height='90'> <img   src='G_6.jpg' height='90'> <img id='selected'      src='G_2.jpg' height='90'> <img id='selected' src='G_4.jpg' height='90'> <img src='G_5.jpg' height='90'>","null","Animation1",""
"","","","","","html-keyboard-response","124","280019","0.0-97.0","36","1","2025-01-25 16:35:38","af8d355d56820e421d246a7037deb6e6","88.209.235.181","Mozilla/5.0 (Windows NT 10.0; Win64; x64) AppleWebKit/537.36 (KHTML, like Gecko) Chrome/129.0.0.0 Safari/537.36","WebKit","Chrome","129.0.0.0","Windows","10.0","https://app.prolific.com/","en,en-US;q=0.9","677527596d51edae18442b1e","67949641171f97c04e14fb34","679512ccd1199325cc883497","","null","<img     src='G_3.jpg' height='90'> <img     src='G_7.jpg' height='90'> <img     src='G_8.jpg' height='90'> <img      src='G_1.jpg' height='90'> <img   src='G_6.jpg' height='90'> <img id='selected'      src='G_2.jpg' height='90'> <img id='selected' src='G_4.jpg' height='90'> <img src='G_5.jpg' height='90'>","null","Animation1",""
"","","","","","html-keyboard-response","125","280327","0.0-98.0","36","1","2025-01-25 16:35:38","af8d355d56820e421d246a7037deb6e6","88.209.235.181","Mozilla/5.0 (Windows NT 10.0; Win64; x64) AppleWebKit/537.36 (KHTML, like Gecko) Chrome/129.0.0.0 Safari/537.36","WebKit","Chrome","129.0.0.0","Windows","10.0","https://app.prolific.com/","en,en-US;q=0.9","677527596d51edae18442b1e","67949641171f97c04e14fb34","679512ccd1199325cc883497","","null","<img     src='G_3.jpg' height='90'> <img     src='G_7.jpg' height='90'> <img     src='G_8.jpg' height='90'> <img      src='G_1.jpg' height='90'> <img   src='G_6.jpg' height='90'> <img       src='G_2.jpg' height='90'> <img  src='G_4.jpg' height='90'> <img src='G_5.jpg' height='90'>","null","Animation1",""
"","","","","","html-keyboard-response","126","280831","0.0-99.0","36","1","2025-01-25 16:35:38","af8d355d56820e421d246a7037deb6e6","88.209.235.181","Mozilla/5.0 (Windows NT 10.0; Win64; x64) AppleWebKit/537.36 (KHTML, like Gecko) Chrome/129.0.0.0 Safari/537.36","WebKit","Chrome","129.0.0.0","Windows","10.0","https://app.prolific.com/","en,en-US;q=0.9","677527596d51edae18442b1e","67949641171f97c04e14fb34","679512ccd1199325cc883497","","null","<img     src='G_3.jpg' height='90'> <img     src='G_7.jpg' height='90'> <img     src='G_8.jpg' height='90'> <img      src='G_1.jpg' height='90'> <img   src='G_6.jpg' height='90'> <img       src='G_2.jpg' height='90'> <img id='selected'  src='G_4.jpg' height='90'> <img src='G_5.jpg' height='90'>","null","Animation1",""
"","","","","","html-keyboard-response","127","281339","0.0-100.0","36","1","2025-01-25 16:35:38","af8d355d56820e421d246a7037deb6e6","88.209.235.181","Mozilla/5.0 (Windows NT 10.0; Win64; x64) AppleWebKit/537.36 (KHTML, like Gecko) Chrome/129.0.0.0 Safari/537.36","WebKit","Chrome","129.0.0.0","Windows","10.0","https://app.prolific.com/","en,en-US;q=0.9","677527596d51edae18442b1e","67949641171f97c04e14fb34","679512ccd1199325cc883497","","null","<img     src='G_3.jpg' height='90'> <img     src='G_7.jpg' height='90'> <img     src='G_8.jpg' height='90'> <img      src='G_1.jpg' height='90'> <img   src='G_6.jpg' height='90'> <img       src='G_2.jpg' height='90'> <img id='selected'  src='G_4.jpg' height='90'> <img id='selected' src='G_5.jpg' height='90'>","null","Animation1",""
"","","","","","html-keyboard-response","128","281847","0.0-101.0","36","1","2025-01-25 16:35:38","af8d355d56820e421d246a7037deb6e6","88.209.235.181","Mozilla/5.0 (Windows NT 10.0; Win64; x64) AppleWebKit/537.36 (KHTML, like Gecko) Chrome/129.0.0.0 Safari/537.36","WebKit","Chrome","129.0.0.0","Windows","10.0","https://app.prolific.com/","en,en-US;q=0.9","677527596d51edae18442b1e","67949641171f97c04e14fb34","679512ccd1199325cc883497","","null","<img     src='G_3.jpg' height='90'> <img     src='G_7.jpg' height='90'> <img     src='G_8.jpg' height='90'> <img      src='G_1.jpg' height='90'> <img   src='G_6.jpg' height='90'> <img       src='G_2.jpg' height='90'> <img id='swapped' src='G_5.jpg' height='90'> <img id='swapped'  src='G_4.jpg' height='90'>","null","Animation1",""
"","","","","","html-keyboard-response","129","282154","0.0-102.0","36","1","2025-01-25 16:35:38","af8d355d56820e421d246a7037deb6e6","88.209.235.181","Mozilla/5.0 (Windows NT 10.0; Win64; x64) AppleWebKit/537.36 (KHTML, like Gecko) Chrome/129.0.0.0 Safari/537.36","WebKit","Chrome","129.0.0.0","Windows","10.0","https://app.prolific.com/","en,en-US;q=0.9","677527596d51edae18442b1e","67949641171f97c04e14fb34","679512ccd1199325cc883497","","null","<img     src='G_3.jpg' height='90'> <img     src='G_7.jpg' height='90'> <img     src='G_8.jpg' height='90'> <img      src='G_1.jpg' height='90'> <img   src='G_6.jpg' height='90'> <img       src='G_2.jpg' height='90'> <img  src='G_5.jpg' height='90'> <img   src='G_4.jpg' height='90'>","null","Animation1",""
"","","","","","html-keyboard-response","130","282661","0.0-103.0","36","1","2025-01-25 16:35:38","af8d355d56820e421d246a7037deb6e6","88.209.235.181","Mozilla/5.0 (Windows NT 10.0; Win64; x64) AppleWebKit/537.36 (KHTML, like Gecko) Chrome/129.0.0.0 Safari/537.36","WebKit","Chrome","129.0.0.0","Windows","10.0","https://app.prolific.com/","en,en-US;q=0.9","677527596d51edae18442b1e","67949641171f97c04e14fb34","679512ccd1199325cc883497","","null","<img     src='G_3.jpg' height='90'> <img     src='G_7.jpg' height='90'> <img     src='G_8.jpg' height='90'> <img      src='G_1.jpg' height='90'> <img   src='G_6.jpg' height='90'> <img id='selected'       src='G_2.jpg' height='90'> <img  src='G_5.jpg' height='90'> <img   src='G_4.jpg' height='90'>","null","Animation1",""
"","","","","","html-keyboard-response","131","283165","0.0-104.0","36","1","2025-01-25 16:35:38","af8d355d56820e421d246a7037deb6e6","88.209.235.181","Mozilla/5.0 (Windows NT 10.0; Win64; x64) AppleWebKit/537.36 (KHTML, like Gecko) Chrome/129.0.0.0 Safari/537.36","WebKit","Chrome","129.0.0.0","Windows","10.0","https://app.prolific.com/","en,en-US;q=0.9","677527596d51edae18442b1e","67949641171f97c04e14fb34","679512ccd1199325cc883497","","null","<img     src='G_3.jpg' height='90'> <img     src='G_7.jpg' height='90'> <img     src='G_8.jpg' height='90'> <img      src='G_1.jpg' height='90'> <img   src='G_6.jpg' height='90'> <img id='selected'       src='G_2.jpg' height='90'> <img id='selected'  src='G_5.jpg' height='90'> <img   src='G_4.jpg' height='90'>","null","Animation1",""
"","","","","","html-keyboard-response","132","283674","0.0-105.0","36","1","2025-01-25 16:35:38","af8d355d56820e421d246a7037deb6e6","88.209.235.181","Mozilla/5.0 (Windows NT 10.0; Win64; x64) AppleWebKit/537.36 (KHTML, like Gecko) Chrome/129.0.0.0 Safari/537.36","WebKit","Chrome","129.0.0.0","Windows","10.0","https://app.prolific.com/","en,en-US;q=0.9","677527596d51edae18442b1e","67949641171f97c04e14fb34","679512ccd1199325cc883497","","null","<img     src='G_3.jpg' height='90'> <img     src='G_7.jpg' height='90'> <img     src='G_8.jpg' height='90'> <img      src='G_1.jpg' height='90'> <img   src='G_6.jpg' height='90'> <img id='selected'       src='G_2.jpg' height='90'> <img id='selected'  src='G_5.jpg' height='90'> <img   src='G_4.jpg' height='90'>","null","Animation1",""
"","","","","","html-keyboard-response","133","283980","0.0-106.0","36","1","2025-01-25 16:35:38","af8d355d56820e421d246a7037deb6e6","88.209.235.181","Mozilla/5.0 (Windows NT 10.0; Win64; x64) AppleWebKit/537.36 (KHTML, like Gecko) Chrome/129.0.0.0 Safari/537.36","WebKit","Chrome","129.0.0.0","Windows","10.0","https://app.prolific.com/","en,en-US;q=0.9","677527596d51edae18442b1e","67949641171f97c04e14fb34","679512ccd1199325cc883497","","null","<img     src='G_3.jpg' height='90'> <img     src='G_7.jpg' height='90'> <img     src='G_8.jpg' height='90'> <img      src='G_1.jpg' height='90'> <img   src='G_6.jpg' height='90'> <img        src='G_2.jpg' height='90'> <img   src='G_5.jpg' height='90'> <img   src='G_4.jpg' height='90'>","null","Animation1",""
"","","","","","html-keyboard-response","134","285854","0.0-107.0","36","1","2025-01-25 16:35:38","af8d355d56820e421d246a7037deb6e6","88.209.235.181","Mozilla/5.0 (Windows NT 10.0; Win64; x64) AppleWebKit/537.36 (KHTML, like Gecko) Chrome/129.0.0.0 Safari/537.36","WebKit","Chrome","129.0.0.0","Windows","10.0","https://app.prolific.com/","en,en-US;q=0.9","677527596d51edae18442b1e","67949641171f97c04e14fb34","679512ccd1199325cc883497","","1869","[""Did you notice any patterns? <br><br>Press Enter to watch that example again and follow the steps of Omgne Sort.""]","enter","",""
"","","","","","html-button-response","135","286258","0.0-108.0","36","1","2025-01-25 16:35:38","af8d355d56820e421d246a7037deb6e6","88.209.235.181","Mozilla/5.0 (Windows NT 10.0; Win64; x64) AppleWebKit/537.36 (KHTML, like Gecko) Chrome/129.0.0.0 Safari/537.36","WebKit","Chrome","129.0.0.0","Windows","10.0","https://app.prolific.com/","en,en-US;q=0.9","677527596d51edae18442b1e","67949641171f97c04e14fb34","679512ccd1199325cc883497","","null","<img id='selected' src='G_1.jpg' height='90'> <img src='G_2.jpg' height='90'> <img src='G_8.jpg' height='90'> <img src='G_3.jpg' height='90'> <img src='G_7.jpg' height='90'> <img src='G_6.jpg' height='90'> <img src='G_4.jpg' height='90'> <img src='G_5.jpg' height='90'>","null","Learning example 1",""
"","","","","","html-button-response","136","286567","0.0-109.0","36","1","2025-01-25 16:35:38","af8d355d56820e421d246a7037deb6e6","88.209.235.181","Mozilla/5.0 (Windows NT 10.0; Win64; x64) AppleWebKit/537.36 (KHTML, like Gecko) Chrome/129.0.0.0 Safari/537.36","WebKit","Chrome","129.0.0.0","Windows","10.0","https://app.prolific.com/","en,en-US;q=0.9","677527596d51edae18442b1e","67949641171f97c04e14fb34","679512ccd1199325cc883497","","null","<img id='selected' src='G_1.jpg' height='90'> <img id='selected' src='G_2.jpg' height='90'> <img src='G_8.jpg' height='90'> <img src='G_3.jpg' height='90'> <img src='G_7.jpg' height='90'> <img src='G_6.jpg' height='90'> <img src='G_4.jpg' height='90'> <img src='G_5.jpg' height='90'>","null","Learning example 1",""
"","","","","","html-button-response","137","286873","0.0-110.0","36","1","2025-01-25 16:35:38","af8d355d56820e421d246a7037deb6e6","88.209.235.181","Mozilla/5.0 (Windows NT 10.0; Win64; x64) AppleWebKit/537.36 (KHTML, like Gecko) Chrome/129.0.0.0 Safari/537.36","WebKit","Chrome","129.0.0.0","Windows","10.0","https://app.prolific.com/","en,en-US;q=0.9","677527596d51edae18442b1e","67949641171f97c04e14fb34","679512ccd1199325cc883497","","null","<img id='selected' src='G_1.jpg' height='90'> <img id='selected' src='G_2.jpg' height='90'> <img src='G_8.jpg' height='90'> <img src='G_3.jpg' height='90'> <img src='G_7.jpg' height='90'> <img src='G_6.jpg' height='90'> <img src='G_4.jpg' height='90'> <img src='G_5.jpg' height='90'>","null","Learning example 1",""
"","","","","","html-button-response","138","288254","0.0-111.0-0.0-0.0","36","1","2025-01-25 16:35:38","af8d355d56820e421d246a7037deb6e6","88.209.235.181","Mozilla/5.0 (Windows NT 10.0; Win64; x64) AppleWebKit/537.36 (KHTML, like Gecko) Chrome/129.0.0.0 Safari/537.36","WebKit","Chrome","129.0.0.0","Windows","10.0","https://app.prolific.com/","en,en-US;q=0.9","677527596d51edae18442b1e","67949641171f97c04e14fb34","679512ccd1199325cc883497","","1373","<img id='selected' src='G_1.jpg' height='90'> <img id='selected' src='G_2.jpg' height='90'> <img src='G_8.jpg' height='90'> <img src='G_3.jpg' height='90'> <img src='G_7.jpg' height='90'> <img src='G_6.jpg' height='90'> <img src='G_4.jpg' height='90'> <img src='G_5.jpg' height='90'>","0","Learning example 1",""
"","","","","","html-button-response","139","288886","0.0-111.1-0.1-0.1","36","1","2025-01-25 16:35:38","af8d355d56820e421d246a7037deb6e6","88.209.235.181","Mozilla/5.0 (Windows NT 10.0; Win64; x64) AppleWebKit/537.36 (KHTML, like Gecko) Chrome/129.0.0.0 Safari/537.36","WebKit","Chrome","129.0.0.0","Windows","10.0","https://app.prolific.com/","en,en-US;q=0.9","677527596d51edae18442b1e","67949641171f97c04e14fb34","679512ccd1199325cc883497","","629","<img id='selected' src='G_1.jpg' height='90'> <img id='selected' src='G_2.jpg' height='90'> <img src='G_8.jpg' height='90'> <img src='G_3.jpg' height='90'> <img src='G_7.jpg' height='90'> <img src='G_6.jpg' height='90'> <img src='G_4.jpg' height='90'> <img src='G_5.jpg' height='90'>","1","Learning example 1",""
"","","","","","html-button-response","140","289090","0.0-112.0","36","1","2025-01-25 16:35:38","af8d355d56820e421d246a7037deb6e6","88.209.235.181","Mozilla/5.0 (Windows NT 10.0; Win64; x64) AppleWebKit/537.36 (KHTML, like Gecko) Chrome/129.0.0.0 Safari/537.36","WebKit","Chrome","129.0.0.0","Windows","10.0","https://app.prolific.com/","en,en-US;q=0.9","677527596d51edae18442b1e","67949641171f97c04e14fb34","679512ccd1199325cc883497","","null","<img  src='G_1.jpg' height='90'> <img  src='G_2.jpg' height='90'> <img src='G_8.jpg' height='90'> <img src='G_3.jpg' height='90'> <img src='G_7.jpg' height='90'> <img src='G_6.jpg' height='90'> <img src='G_4.jpg' height='90'> <img src='G_5.jpg' height='90'>","null","Learning example 1",""
"","","","","","html-button-response","141","289499","0.0-113.0","36","1","2025-01-25 16:35:38","af8d355d56820e421d246a7037deb6e6","88.209.235.181","Mozilla/5.0 (Windows NT 10.0; Win64; x64) AppleWebKit/537.36 (KHTML, like Gecko) Chrome/129.0.0.0 Safari/537.36","WebKit","Chrome","129.0.0.0","Windows","10.0","https://app.prolific.com/","en,en-US;q=0.9","677527596d51edae18442b1e","67949641171f97c04e14fb34","679512ccd1199325cc883497","","null","<img  src='G_1.jpg' height='90'> <img id='selected'  src='G_2.jpg' height='90'> <img src='G_8.jpg' height='90'> <img src='G_3.jpg' height='90'> <img src='G_7.jpg' height='90'> <img src='G_6.jpg' height='90'> <img src='G_4.jpg' height='90'> <img src='G_5.jpg' height='90'>","null","Learning example 1",""
"","","","","","html-button-response","142","289806","0.0-114.0","36","1","2025-01-25 16:35:38","af8d355d56820e421d246a7037deb6e6","88.209.235.181","Mozilla/5.0 (Windows NT 10.0; Win64; x64) AppleWebKit/537.36 (KHTML, like Gecko) Chrome/129.0.0.0 Safari/537.36","WebKit","Chrome","129.0.0.0","Windows","10.0","https://app.prolific.com/","en,en-US;q=0.9","677527596d51edae18442b1e","67949641171f97c04e14fb34","679512ccd1199325cc883497","","null","<img  src='G_1.jpg' height='90'> <img id='selected'  src='G_2.jpg' height='90'> <img id='selected' src='G_8.jpg' height='90'> <img src='G_3.jpg' height='90'> <img src='G_7.jpg' height='90'> <img src='G_6.jpg' height='90'> <img src='G_4.jpg' height='90'> <img src='G_5.jpg' height='90'>","null","Learning example 1",""
"","","","","","html-button-response","143","290109","0.0-115.0","36","1","2025-01-25 16:35:38","af8d355d56820e421d246a7037deb6e6","88.209.235.181","Mozilla/5.0 (Windows NT 10.0; Win64; x64) AppleWebKit/537.36 (KHTML, like Gecko) Chrome/129.0.0.0 Safari/537.36","WebKit","Chrome","129.0.0.0","Windows","10.0","https://app.prolific.com/","en,en-US;q=0.9","677527596d51edae18442b1e","67949641171f97c04e14fb34","679512ccd1199325cc883497","","null","<img  src='G_1.jpg' height='90'> <img id='swapped' src='G_8.jpg' height='90'> <img id='swapped'  src='G_2.jpg' height='90'> <img src='G_3.jpg' height='90'> <img src='G_7.jpg' height='90'> <img src='G_6.jpg' height='90'> <img src='G_4.jpg' height='90'> <img src='G_5.jpg' height='90'>","null","Learning example 1",""
"","","","","","html-button-response","144","293103","0.0-116.0-0.0-0.0","36","1","2025-01-25 16:35:38","af8d355d56820e421d246a7037deb6e6","88.209.235.181","Mozilla/5.0 (Windows NT 10.0; Win64; x64) AppleWebKit/537.36 (KHTML, like Gecko) Chrome/129.0.0.0 Safari/537.36","WebKit","Chrome","129.0.0.0","Windows","10.0","https://app.prolific.com/","en,en-US;q=0.9","677527596d51edae18442b1e","67949641171f97c04e14fb34","679512ccd1199325cc883497","","2990","<img  src='G_1.jpg' height='90'> <img id='swapped' src='G_8.jpg' height='90'> <img id='swapped'  src='G_2.jpg' height='90'> <img src='G_3.jpg' height='90'> <img src='G_7.jpg' height='90'> <img src='G_6.jpg' height='90'> <img src='G_4.jpg' height='90'> <img src='G_5.jpg' height='90'>","1","Learning example 1",""
"","","","","","html-button-response","145","293743","0.0-116.1-0.1-0.1","36","1","2025-01-25 16:35:38","af8d355d56820e421d246a7037deb6e6","88.209.235.181","Mozilla/5.0 (Windows NT 10.0; Win64; x64) AppleWebKit/537.36 (KHTML, like Gecko) Chrome/129.0.0.0 Safari/537.36","WebKit","Chrome","129.0.0.0","Windows","10.0","https://app.prolific.com/","en,en-US;q=0.9","677527596d51edae18442b1e","67949641171f97c04e14fb34","679512ccd1199325cc883497","","637","<img  src='G_1.jpg' height='90'> <img id='swapped' src='G_8.jpg' height='90'> <img id='swapped'  src='G_2.jpg' height='90'> <img src='G_3.jpg' height='90'> <img src='G_7.jpg' height='90'> <img src='G_6.jpg' height='90'> <img src='G_4.jpg' height='90'> <img src='G_5.jpg' height='90'>","2","Learning example 1",""
