"success","timeout","failed_images","failed_audio","failed_video","trial_type","trial_index","time_elapsed","internal_node_id","run_id","condition","recorded_at","source_code_version","ip","user_agent","device","browser","browser_version","platform","platform_version","referer","accept_language","PROLIFIC_PID","STUDY_ID","SESSION_ID","view_history","rt","stimulus","response","phase","question_order"
"true","false","[]","[]","[]","preload","0","1367","0.0-0.0","37","1","2025-01-25 16:42:24","af8d355d56820e421d246a7037deb6e6","174.74.179.46","Mozilla/5.0 (Windows NT 10.0; Win64; x64) AppleWebKit/537.36 (KHTML, like Gecko) Chrome/131.0.0.0 Safari/537.36","WebKit","Chrome","131.0.0.0","Windows","10.0","https://app.prolific.com/","en-US,en;q=0.9","6595ddebdbc6d36b1ef5462a","67949641171f97c04e14fb34","67951463b64fec483e23d92c","","","","","",""
"","","","","","instructions","1","74698","0.0-1.0","37","1","2025-01-25 16:42:24","af8d355d56820e421d246a7037deb6e6","174.74.179.46","Mozilla/5.0 (Windows NT 10.0; Win64; x64) AppleWebKit/537.36 (KHTML, like Gecko) Chrome/131.0.0.0 Safari/537.36","WebKit","Chrome","131.0.0.0","Windows","10.0","https://app.prolific.com/","en-US,en;q=0.9","6595ddebdbc6d36b1ef5462a","67949641171f97c04e14fb34","67951463b64fec483e23d92c","[{""page_index"":0,""viewing_time"":73329}]","73329","","","",""
"","","","","","html-keyboard-response","2","75204","0.0-2.0","37","1","2025-01-25 16:42:24","af8d355d56820e421d246a7037deb6e6","174.74.179.46","Mozilla/5.0 (Windows NT 10.0; Win64; x64) AppleWebKit/537.36 (KHTML, like Gecko) Chrome/131.0.0.0 Safari/537.36","WebKit","Chrome","131.0.0.0","Windows","10.0","https://app.prolific.com/","en-US,en;q=0.9","6595ddebdbc6d36b1ef5462a","67949641171f97c04e14fb34","67951463b64fec483e23d92c","","null","<p> + <p/>","null","",""
"","","","","","instructions","3","138751","0.0-3.0","37","1","2025-01-25 16:42:24","af8d355d56820e421d246a7037deb6e6","174.74.179.46","Mozilla/5.0 (Windows NT 10.0; Win64; x64) AppleWebKit/537.36 (KHTML, like Gecko) Chrome/131.0.0.0 Safari/537.36","WebKit","Chrome","131.0.0.0","Windows","10.0","https://app.prolific.com/","en-US,en;q=0.9","6595ddebdbc6d36b1ef5462a","67949641171f97c04e14fb34","67951463b64fec483e23d92c","[{""page_index"":0,""viewing_time"":2850},{""page_index"":1,""viewing_time"":18536},{""page_index"":2,""viewing_time"":19428},{""page_index"":3,""viewing_time"":8285},{""page_index"":4,""viewing_time"":14446}]","63545","","","",""
"","","","","","html-button-response","4","177596","0.0-4.0-0.0-0.0","37","1","2025-01-25 16:42:24","af8d355d56820e421d246a7037deb6e6","174.74.179.46","Mozilla/5.0 (Windows NT 10.0; Win64; x64) AppleWebKit/537.36 (KHTML, like Gecko) Chrome/131.0.0.0 Safari/537.36","WebKit","Chrome","131.0.0.0","Windows","10.0","https://app.prolific.com/","en-US,en;q=0.9","6595ddebdbc6d36b1ef5462a","67949641171f97c04e14fb34","67951463b64fec483e23d92c","","38842","","0","Intro Trial",""
"","","","","","html-button-response","5","179217","0.0-4.1-0.1-0.1","37","1","2025-01-25 16:42:24","af8d355d56820e421d246a7037deb6e6","174.74.179.46","Mozilla/5.0 (Windows NT 10.0; Win64; x64) AppleWebKit/537.36 (KHTML, like Gecko) Chrome/131.0.0.0 Safari/537.36","WebKit","Chrome","131.0.0.0","Windows","10.0","https://app.prolific.com/","en-US,en;q=0.9","6595ddebdbc6d36b1ef5462a","67949641171f97c04e14fb34","67951463b64fec483e23d92c","","1618","","3","Intro Trial",""
"","","","","","html-button-response","6","184173","0.0-4.2-0.2-0.2","37","1","2025-01-25 16:42:24","af8d355d56820e421d246a7037deb6e6","174.74.179.46","Mozilla/5.0 (Windows NT 10.0; Win64; x64) AppleWebKit/537.36 (KHTML, like Gecko) Chrome/131.0.0.0 Safari/537.36","WebKit","Chrome","131.0.0.0","Windows","10.0","https://app.prolific.com/","en-US,en;q=0.9","6595ddebdbc6d36b1ef5462a","67949641171f97c04e14fb34","67951463b64fec483e23d92c","","4953","","0","Intro Trial",""
"","","","","","html-button-response","7","185973","0.0-4.3-0.3-0.3","37","1","2025-01-25 16:42:24","af8d355d56820e421d246a7037deb6e6","174.74.179.46","Mozilla/5.0 (Windows NT 10.0; Win64; x64) AppleWebKit/537.36 (KHTML, like Gecko) Chrome/131.0.0.0 Safari/537.36","WebKit","Chrome","131.0.0.0","Windows","10.0","https://app.prolific.com/","en-US,en;q=0.9","6595ddebdbc6d36b1ef5462a","67949641171f97c04e14fb34","67951463b64fec483e23d92c","","1798","","3","Intro Trial",""
"","","","","","html-button-response","8","187130","0.0-4.4-0.4-0.4","37","1","2025-01-25 16:42:24","af8d355d56820e421d246a7037deb6e6","174.74.179.46","Mozilla/5.0 (Windows NT 10.0; Win64; x64) AppleWebKit/537.36 (KHTML, like Gecko) Chrome/131.0.0.0 Safari/537.36","WebKit","Chrome","131.0.0.0","Windows","10.0","https://app.prolific.com/","en-US,en;q=0.9","6595ddebdbc6d36b1ef5462a","67949641171f97c04e14fb34","67951463b64fec483e23d92c","","1154","","3","Intro Trial",""
"","","","","","html-button-response","9","194905","0.0-4.5-0.5-0.5","37","1","2025-01-25 16:42:24","af8d355d56820e421d246a7037deb6e6","174.74.179.46","Mozilla/5.0 (Windows NT 10.0; Win64; x64) AppleWebKit/537.36 (KHTML, like Gecko) Chrome/131.0.0.0 Safari/537.36","WebKit","Chrome","131.0.0.0","Windows","10.0","https://app.prolific.com/","en-US,en;q=0.9","6595ddebdbc6d36b1ef5462a","67949641171f97c04e14fb34","67951463b64fec483e23d92c","","7772","","3","Intro Trial",""
"","","","","","html-button-response","10","195126","0.0-4.6-0.6-0.6","37","1","2025-01-25 16:42:24","af8d355d56820e421d246a7037deb6e6","174.74.179.46","Mozilla/5.0 (Windows NT 10.0; Win64; x64) AppleWebKit/537.36 (KHTML, like Gecko) Chrome/131.0.0.0 Safari/537.36","WebKit","Chrome","131.0.0.0","Windows","10.0","https://app.prolific.com/","en-US,en;q=0.9","6595ddebdbc6d36b1ef5462a","67949641171f97c04e14fb34","67951463b64fec483e23d92c","","219","","3","Intro Trial",""
"","","","","","html-button-response","11","199993","0.0-4.7-0.7-0.7","37","1","2025-01-25 16:42:24","af8d355d56820e421d246a7037deb6e6","174.74.179.46","Mozilla/5.0 (Windows NT 10.0; Win64; x64) AppleWebKit/537.36 (KHTML, like Gecko) Chrome/131.0.0.0 Safari/537.36","WebKit","Chrome","131.0.0.0","Windows","10.0","https://app.prolific.com/","en-US,en;q=0.9","6595ddebdbc6d36b1ef5462a","67949641171f97c04e14fb34","67951463b64fec483e23d92c","","4863","","2","Intro Trial",""
"","","","","","html-button-response","12","202114","0.0-4.8-0.8-0.8","37","1","2025-01-25 16:42:24","af8d355d56820e421d246a7037deb6e6","174.74.179.46","Mozilla/5.0 (Windows NT 10.0; Win64; x64) AppleWebKit/537.36 (KHTML, like Gecko) Chrome/131.0.0.0 Safari/537.36","WebKit","Chrome","131.0.0.0","Windows","10.0","https://app.prolific.com/","en-US,en;q=0.9","6595ddebdbc6d36b1ef5462a","67949641171f97c04e14fb34","67951463b64fec483e23d92c","","2117","","2","Intro Trial",""
"","","","","","html-button-response","13","204096","0.0-4.9-0.9-0.9","37","1","2025-01-25 16:42:24","af8d355d56820e421d246a7037deb6e6","174.74.179.46","Mozilla/5.0 (Windows NT 10.0; Win64; x64) AppleWebKit/537.36 (KHTML, like Gecko) Chrome/131.0.0.0 Safari/537.36","WebKit","Chrome","131.0.0.0","Windows","10.0","https://app.prolific.com/","en-US,en;q=0.9","6595ddebdbc6d36b1ef5462a","67949641171f97c04e14fb34","67951463b64fec483e23d92c","","1979","","1","Intro Trial",""
"","","","","","html-button-response","14","205372","0.0-4.10-0.10-0.10","37","1","2025-01-25 16:42:24","af8d355d56820e421d246a7037deb6e6","174.74.179.46","Mozilla/5.0 (Windows NT 10.0; Win64; x64) AppleWebKit/537.36 (KHTML, like Gecko) Chrome/131.0.0.0 Safari/537.36","WebKit","Chrome","131.0.0.0","Windows","10.0","https://app.prolific.com/","en-US,en;q=0.9","6595ddebdbc6d36b1ef5462a","67949641171f97c04e14fb34","67951463b64fec483e23d92c","","1274","","1","Intro Trial",""
"","","","","","html-button-response","15","207982","0.0-4.11-0.11-0.11","37","1","2025-01-25 16:42:24","af8d355d56820e421d246a7037deb6e6","174.74.179.46","Mozilla/5.0 (Windows NT 10.0; Win64; x64) AppleWebKit/537.36 (KHTML, like Gecko) Chrome/131.0.0.0 Safari/537.36","WebKit","Chrome","131.0.0.0","Windows","10.0","https://app.prolific.com/","en-US,en;q=0.9","6595ddebdbc6d36b1ef5462a","67949641171f97c04e14fb34","67951463b64fec483e23d92c","","2608","","2","Intro Trial",""
"","","","","","html-button-response","16","208964","0.0-4.12-0.12-0.12","37","1","2025-01-25 16:42:24","af8d355d56820e421d246a7037deb6e6","174.74.179.46","Mozilla/5.0 (Windows NT 10.0; Win64; x64) AppleWebKit/537.36 (KHTML, like Gecko) Chrome/131.0.0.0 Safari/537.36","WebKit","Chrome","131.0.0.0","Windows","10.0","https://app.prolific.com/","en-US,en;q=0.9","6595ddebdbc6d36b1ef5462a","67949641171f97c04e14fb34","67951463b64fec483e23d92c","","979","","2","Intro Trial",""
"","","","","","html-button-response","17","210067","0.0-4.13-0.13-0.13","37","1","2025-01-25 16:42:24","af8d355d56820e421d246a7037deb6e6","174.74.179.46","Mozilla/5.0 (Windows NT 10.0; Win64; x64) AppleWebKit/537.36 (KHTML, like Gecko) Chrome/131.0.0.0 Safari/537.36","WebKit","Chrome","131.0.0.0","Windows","10.0","https://app.prolific.com/","en-US,en;q=0.9","6595ddebdbc6d36b1ef5462a","67949641171f97c04e14fb34","67951463b64fec483e23d92c","","1100","","4","Intro Trial",""
"","","","","","html-button-response","18","216251","0.0-4.14-0.14-0.14","37","1","2025-01-25 16:42:24","af8d355d56820e421d246a7037deb6e6","174.74.179.46","Mozilla/5.0 (Windows NT 10.0; Win64; x64) AppleWebKit/537.36 (KHTML, like Gecko) Chrome/131.0.0.0 Safari/537.36","WebKit","Chrome","131.0.0.0","Windows","10.0","https://app.prolific.com/","en-US,en;q=0.9","6595ddebdbc6d36b1ef5462a","67949641171f97c04e14fb34","67951463b64fec483e23d92c","","6181","","1","Intro Trial",""
"","","","","","html-button-response","19","217678","0.0-4.15-0.15-0.15","37","1","2025-01-25 16:42:24","af8d355d56820e421d246a7037deb6e6","174.74.179.46","Mozilla/5.0 (Windows NT 10.0; Win64; x64) AppleWebKit/537.36 (KHTML, like Gecko) Chrome/131.0.0.0 Safari/537.36","WebKit","Chrome","131.0.0.0","Windows","10.0","https://app.prolific.com/","en-US,en;q=0.9","6595ddebdbc6d36b1ef5462a","67949641171f97c04e14fb34","67951463b64fec483e23d92c","","1424","","3","Intro Trial",""
"","","","","","html-button-response","20","218901","0.0-4.16-0.16-0.16","37","1","2025-01-25 16:42:24","af8d355d56820e421d246a7037deb6e6","174.74.179.46","Mozilla/5.0 (Windows NT 10.0; Win64; x64) AppleWebKit/537.36 (KHTML, like Gecko) Chrome/131.0.0.0 Safari/537.36","WebKit","Chrome","131.0.0.0","Windows","10.0","https://app.prolific.com/","en-US,en;q=0.9","6595ddebdbc6d36b1ef5462a","67949641171f97c04e14fb34","67951463b64fec483e23d92c","","1219","","3","Intro Trial",""
"","","","","","html-button-response","21","220426","0.0-4.17-0.17-0.17","37","1","2025-01-25 16:42:24","af8d355d56820e421d246a7037deb6e6","174.74.179.46","Mozilla/5.0 (Windows NT 10.0; Win64; x64) AppleWebKit/537.36 (KHTML, like Gecko) Chrome/131.0.0.0 Safari/537.36","WebKit","Chrome","131.0.0.0","Windows","10.0","https://app.prolific.com/","en-US,en;q=0.9","6595ddebdbc6d36b1ef5462a","67949641171f97c04e14fb34","67951463b64fec483e23d92c","","1523","","2","Intro Trial",""
"","","","","","html-button-response","22","221477","0.0-4.18-0.18-0.18","37","1","2025-01-25 16:42:24","af8d355d56820e421d246a7037deb6e6","174.74.179.46","Mozilla/5.0 (Windows NT 10.0; Win64; x64) AppleWebKit/537.36 (KHTML, like Gecko) Chrome/131.0.0.0 Safari/537.36","WebKit","Chrome","131.0.0.0","Windows","10.0","https://app.prolific.com/","en-US,en;q=0.9","6595ddebdbc6d36b1ef5462a","67949641171f97c04e14fb34","67951463b64fec483e23d92c","","1048","","2","Intro Trial",""
"","","","","","html-button-response","23","223044","0.0-4.19-0.19-0.19","37","1","2025-01-25 16:42:24","af8d355d56820e421d246a7037deb6e6","174.74.179.46","Mozilla/5.0 (Windows NT 10.0; Win64; x64) AppleWebKit/537.36 (KHTML, like Gecko) Chrome/131.0.0.0 Safari/537.36","WebKit","Chrome","131.0.0.0","Windows","10.0","https://app.prolific.com/","en-US,en;q=0.9","6595ddebdbc6d36b1ef5462a","67949641171f97c04e14fb34","67951463b64fec483e23d92c","","1563","","0","Intro Trial",""
"","","","","","html-button-response","24","235694","0.0-4.20-0.20-0.20","37","1","2025-01-25 16:42:24","af8d355d56820e421d246a7037deb6e6","174.74.179.46","Mozilla/5.0 (Windows NT 10.0; Win64; x64) AppleWebKit/537.36 (KHTML, like Gecko) Chrome/131.0.0.0 Safari/537.36","WebKit","Chrome","131.0.0.0","Windows","10.0","https://app.prolific.com/","en-US,en;q=0.9","6595ddebdbc6d36b1ef5462a","67949641171f97c04e14fb34","67951463b64fec483e23d92c","","12646","","4","Intro Trial",""
"","","","","","html-button-response","25","236818","0.0-4.21-0.21-0.21","37","1","2025-01-25 16:42:24","af8d355d56820e421d246a7037deb6e6","174.74.179.46","Mozilla/5.0 (Windows NT 10.0; Win64; x64) AppleWebKit/537.36 (KHTML, like Gecko) Chrome/131.0.0.0 Safari/537.36","WebKit","Chrome","131.0.0.0","Windows","10.0","https://app.prolific.com/","en-US,en;q=0.9","6595ddebdbc6d36b1ef5462a","67949641171f97c04e14fb34","67951463b64fec483e23d92c","","1120","","3","Intro Trial",""
"","","","","","html-button-response","26","240961","0.0-4.22-0.22-0.22","37","1","2025-01-25 16:42:24","af8d355d56820e421d246a7037deb6e6","174.74.179.46","Mozilla/5.0 (Windows NT 10.0; Win64; x64) AppleWebKit/537.36 (KHTML, like Gecko) Chrome/131.0.0.0 Safari/537.36","WebKit","Chrome","131.0.0.0","Windows","10.0","https://app.prolific.com/","en-US,en;q=0.9","6595ddebdbc6d36b1ef5462a","67949641171f97c04e14fb34","67951463b64fec483e23d92c","","4141","","2","Intro Trial",""
"","","","","","html-button-response","27","241985","0.0-4.23-0.23-0.23","37","1","2025-01-25 16:42:24","af8d355d56820e421d246a7037deb6e6","174.74.179.46","Mozilla/5.0 (Windows NT 10.0; Win64; x64) AppleWebKit/537.36 (KHTML, like Gecko) Chrome/131.0.0.0 Safari/537.36","WebKit","Chrome","131.0.0.0","Windows","10.0","https://app.prolific.com/","en-US,en;q=0.9","6595ddebdbc6d36b1ef5462a","67949641171f97c04e14fb34","67951463b64fec483e23d92c","","1020","","1","Intro Trial",""
"","","","","","html-button-response","28","244152","0.0-4.24-0.24-0.24","37","1","2025-01-25 16:42:24","af8d355d56820e421d246a7037deb6e6","174.74.179.46","Mozilla/5.0 (Windows NT 10.0; Win64; x64) AppleWebKit/537.36 (KHTML, like Gecko) Chrome/131.0.0.0 Safari/537.36","WebKit","Chrome","131.0.0.0","Windows","10.0","https://app.prolific.com/","en-US,en;q=0.9","6595ddebdbc6d36b1ef5462a","67949641171f97c04e14fb34","67951463b64fec483e23d92c","","2164","","3","Intro Trial",""
"","","","","","html-button-response","29","245277","0.0-4.25-0.25-0.25","37","1","2025-01-25 16:42:24","af8d355d56820e421d246a7037deb6e6","174.74.179.46","Mozilla/5.0 (Windows NT 10.0; Win64; x64) AppleWebKit/537.36 (KHTML, like Gecko) Chrome/131.0.0.0 Safari/537.36","WebKit","Chrome","131.0.0.0","Windows","10.0","https://app.prolific.com/","en-US,en;q=0.9","6595ddebdbc6d36b1ef5462a","67949641171f97c04e14fb34","67951463b64fec483e23d92c","","1122","","2","Intro Trial",""
"","","","","","html-button-response","30","248659","0.0-4.26-0.26-0.26","37","1","2025-01-25 16:42:24","af8d355d56820e421d246a7037deb6e6","174.74.179.46","Mozilla/5.0 (Windows NT 10.0; Win64; x64) AppleWebKit/537.36 (KHTML, like Gecko) Chrome/131.0.0.0 Safari/537.36","WebKit","Chrome","131.0.0.0","Windows","10.0","https://app.prolific.com/","en-US,en;q=0.9","6595ddebdbc6d36b1ef5462a","67949641171f97c04e14fb34","67951463b64fec483e23d92c","","3378","","2","Intro Trial",""
"","","","","","html-button-response","31","249669","0.0-4.27-0.27-0.27","37","1","2025-01-25 16:42:24","af8d355d56820e421d246a7037deb6e6","174.74.179.46","Mozilla/5.0 (Windows NT 10.0; Win64; x64) AppleWebKit/537.36 (KHTML, like Gecko) Chrome/131.0.0.0 Safari/537.36","WebKit","Chrome","131.0.0.0","Windows","10.0","https://app.prolific.com/","en-US,en;q=0.9","6595ddebdbc6d36b1ef5462a","67949641171f97c04e14fb34","67951463b64fec483e23d92c","","1004","","1","Intro Trial",""
"","","","","","html-button-response","32","251366","0.0-4.28-0.28-0.28","37","1","2025-01-25 16:42:24","af8d355d56820e421d246a7037deb6e6","174.74.179.46","Mozilla/5.0 (Windows NT 10.0; Win64; x64) AppleWebKit/537.36 (KHTML, like Gecko) Chrome/131.0.0.0 Safari/537.36","WebKit","Chrome","131.0.0.0","Windows","10.0","https://app.prolific.com/","en-US,en;q=0.9","6595ddebdbc6d36b1ef5462a","67949641171f97c04e14fb34","67951463b64fec483e23d92c","","1695","","0","Intro Trial",""
"","","","","","html-button-response","33","252261","0.0-4.29-0.29-0.29","37","1","2025-01-25 16:42:24","af8d355d56820e421d246a7037deb6e6","174.74.179.46","Mozilla/5.0 (Windows NT 10.0; Win64; x64) AppleWebKit/537.36 (KHTML, like Gecko) Chrome/131.0.0.0 Safari/537.36","WebKit","Chrome","131.0.0.0","Windows","10.0","https://app.prolific.com/","en-US,en;q=0.9","6595ddebdbc6d36b1ef5462a","67949641171f97c04e14fb34","67951463b64fec483e23d92c","","892","","1","Intro Trial",""
"","","","","","html-button-response","34","253888","0.0-4.30-0.30-0.30","37","1","2025-01-25 16:42:24","af8d355d56820e421d246a7037deb6e6","174.74.179.46","Mozilla/5.0 (Windows NT 10.0; Win64; x64) AppleWebKit/537.36 (KHTML, like Gecko) Chrome/131.0.0.0 Safari/537.36","WebKit","Chrome","131.0.0.0","Windows","10.0","https://app.prolific.com/","en-US,en;q=0.9","6595ddebdbc6d36b1ef5462a","67949641171f97c04e14fb34","67951463b64fec483e23d92c","","1622","","0","Intro Trial",""
"","","","","","html-button-response","35","255209","0.0-4.31-0.31-0.31","37","1","2025-01-25 16:42:24","af8d355d56820e421d246a7037deb6e6","174.74.179.46","Mozilla/5.0 (Windows NT 10.0; Win64; x64) AppleWebKit/537.36 (KHTML, like Gecko) Chrome/131.0.0.0 Safari/537.36","WebKit","Chrome","131.0.0.0","Windows","10.0","https://app.prolific.com/","en-US,en;q=0.9","6595ddebdbc6d36b1ef5462a","67949641171f97c04e14fb34","67951463b64fec483e23d92c","","1319","","2","Intro Trial",""
"","","","","","html-button-response","36","257327","0.0-4.32-0.32-0.32","37","1","2025-01-25 16:42:24","af8d355d56820e421d246a7037deb6e6","174.74.179.46","Mozilla/5.0 (Windows NT 10.0; Win64; x64) AppleWebKit/537.36 (KHTML, like Gecko) Chrome/131.0.0.0 Safari/537.36","WebKit","Chrome","131.0.0.0","Windows","10.0","https://app.prolific.com/","en-US,en;q=0.9","6595ddebdbc6d36b1ef5462a","67949641171f97c04e14fb34","67951463b64fec483e23d92c","","2114","","4","Intro Trial",""
"","","","","","html-button-response","37","258210","0.0-4.33-0.33-0.33","37","1","2025-01-25 16:42:24","af8d355d56820e421d246a7037deb6e6","174.74.179.46","Mozilla/5.0 (Windows NT 10.0; Win64; x64) AppleWebKit/537.36 (KHTML, like Gecko) Chrome/131.0.0.0 Safari/537.36","WebKit","Chrome","131.0.0.0","Windows","10.0","https://app.prolific.com/","en-US,en;q=0.9","6595ddebdbc6d36b1ef5462a","67949641171f97c04e14fb34","67951463b64fec483e23d92c","","877","","3","Intro Trial",""
"","","","","","html-button-response","38","260326","0.0-4.34-0.34-0.34","37","1","2025-01-25 16:42:24","af8d355d56820e421d246a7037deb6e6","174.74.179.46","Mozilla/5.0 (Windows NT 10.0; Win64; x64) AppleWebKit/537.36 (KHTML, like Gecko) Chrome/131.0.0.0 Safari/537.36","WebKit","Chrome","131.0.0.0","Windows","10.0","https://app.prolific.com/","en-US,en;q=0.9","6595ddebdbc6d36b1ef5462a","67949641171f97c04e14fb34","67951463b64fec483e23d92c","","2113","","1","Intro Trial",""
"","","","","","html-button-response","39","261431","0.0-4.35-0.35-0.35","37","1","2025-01-25 16:42:24","af8d355d56820e421d246a7037deb6e6","174.74.179.46","Mozilla/5.0 (Windows NT 10.0; Win64; x64) AppleWebKit/537.36 (KHTML, like Gecko) Chrome/131.0.0.0 Safari/537.36","WebKit","Chrome","131.0.0.0","Windows","10.0","https://app.prolific.com/","en-US,en;q=0.9","6595ddebdbc6d36b1ef5462a","67949641171f97c04e14fb34","67951463b64fec483e23d92c","","1103","","3","Intro Trial",""
"","","","","","html-button-response","40","262815","0.0-4.36-0.36-0.36","37","1","2025-01-25 16:42:24","af8d355d56820e421d246a7037deb6e6","174.74.179.46","Mozilla/5.0 (Windows NT 10.0; Win64; x64) AppleWebKit/537.36 (KHTML, like Gecko) Chrome/131.0.0.0 Safari/537.36","WebKit","Chrome","131.0.0.0","Windows","10.0","https://app.prolific.com/","en-US,en;q=0.9","6595ddebdbc6d36b1ef5462a","67949641171f97c04e14fb34","67951463b64fec483e23d92c","","1380","","1","Intro Trial",""
"","","","","","html-button-response","41","263987","0.0-4.37-0.37-0.37","37","1","2025-01-25 16:42:24","af8d355d56820e421d246a7037deb6e6","174.74.179.46","Mozilla/5.0 (Windows NT 10.0; Win64; x64) AppleWebKit/537.36 (KHTML, like Gecko) Chrome/131.0.0.0 Safari/537.36","WebKit","Chrome","131.0.0.0","Windows","10.0","https://app.prolific.com/","en-US,en;q=0.9","6595ddebdbc6d36b1ef5462a","67949641171f97c04e14fb34","67951463b64fec483e23d92c","","1169","","4","Intro Trial",""
"","","","","","html-button-response","42","280713","0.0-4.38-0.38-0.38","37","1","2025-01-25 16:42:24","af8d355d56820e421d246a7037deb6e6","174.74.179.46","Mozilla/5.0 (Windows NT 10.0; Win64; x64) AppleWebKit/537.36 (KHTML, like Gecko) Chrome/131.0.0.0 Safari/537.36","WebKit","Chrome","131.0.0.0","Windows","10.0","https://app.prolific.com/","en-US,en;q=0.9","6595ddebdbc6d36b1ef5462a","67949641171f97c04e14fb34","67951463b64fec483e23d92c","","16723","","1","Intro Trial",""
"","","","","","html-button-response","43","281803","0.0-4.39-0.39-0.39","37","1","2025-01-25 16:42:24","af8d355d56820e421d246a7037deb6e6","174.74.179.46","Mozilla/5.0 (Windows NT 10.0; Win64; x64) AppleWebKit/537.36 (KHTML, like Gecko) Chrome/131.0.0.0 Safari/537.36","WebKit","Chrome","131.0.0.0","Windows","10.0","https://app.prolific.com/","en-US,en;q=0.9","6595ddebdbc6d36b1ef5462a","67949641171f97c04e14fb34","67951463b64fec483e23d92c","","1086","","3","Intro Trial",""
"","","","","","html-button-response","44","284744","0.0-4.40-0.40-0.40","37","1","2025-01-25 16:42:24","af8d355d56820e421d246a7037deb6e6","174.74.179.46","Mozilla/5.0 (Windows NT 10.0; Win64; x64) AppleWebKit/537.36 (KHTML, like Gecko) Chrome/131.0.0.0 Safari/537.36","WebKit","Chrome","131.0.0.0","Windows","10.0","https://app.prolific.com/","en-US,en;q=0.9","6595ddebdbc6d36b1ef5462a","67949641171f97c04e14fb34","67951463b64fec483e23d92c","","2938","","5","Intro Trial",""
"","","","","","html-keyboard-response","45","306141","0.0-5.0","37","1","2025-01-25 16:42:24","af8d355d56820e421d246a7037deb6e6","174.74.179.46","Mozilla/5.0 (Windows NT 10.0; Win64; x64) AppleWebKit/537.36 (KHTML, like Gecko) Chrome/131.0.0.0 Safari/537.36","WebKit","Chrome","131.0.0.0","Windows","10.0","https://app.prolific.com/","en-US,en;q=0.9","6595ddebdbc6d36b1ef5462a","67949641171f97c04e14fb34","67951463b64fec483e23d92c","","21392","[""You sorted correctly by using the balance 19 times. <br><br> <img src='G_5.jpg' height='90'><img src='G_2.jpg' height='90'><img src='G_3.jpg' height='90'><img src='G_1.jpg' height='90'><img src='G_4.jpg' height='90'><br><br> Your final order is 1,2,3,4,5<br><br><br>Omgne Sort in this game will allow you to sort correctly by using the balance 8 times. Press Enter to learn it!""]","enter","",""
"","","","","","html-keyboard-response","46","314624","0.0-6.0","37","1","2025-01-25 16:42:24","af8d355d56820e421d246a7037deb6e6","174.74.179.46","Mozilla/5.0 (Windows NT 10.0; Win64; x64) AppleWebKit/537.36 (KHTML, like Gecko) Chrome/131.0.0.0 Safari/537.36","WebKit","Chrome","131.0.0.0","Windows","10.0","https://app.prolific.com/","en-US,en;q=0.9","6595ddebdbc6d36b1ef5462a","67949641171f97c04e14fb34","67951463b64fec483e23d92c","","8481","<p>Welcome to the learning phase! <br><br> You will learn by six examples. The following learning trials will not be used to calculate your performance. <br><br> Press Enter to continue.<p/>","enter","",""
"","","","","","html-keyboard-response","47","320179","0.0-7.0","37","1","2025-01-25 16:42:24","af8d355d56820e421d246a7037deb6e6","174.74.179.46","Mozilla/5.0 (Windows NT 10.0; Win64; x64) AppleWebKit/537.36 (KHTML, like Gecko) Chrome/131.0.0.0 Safari/537.36","WebKit","Chrome","131.0.0.0","Windows","10.0","https://app.prolific.com/","en-US,en;q=0.9","6595ddebdbc6d36b1ef5462a","67949641171f97c04e14fb34","67951463b64fec483e23d92c","","5552","[""Example 1<br><br>You will watch Omnge Sort in action. Try to identify any patterns in the comparisons made by this method. <br><br>Press Enter to continue.""]","enter","",""
"","","","","","html-keyboard-response","48","320690","0.0-8.0","37","1","2025-01-25 16:42:24","af8d355d56820e421d246a7037deb6e6","174.74.179.46","Mozilla/5.0 (Windows NT 10.0; Win64; x64) AppleWebKit/537.36 (KHTML, like Gecko) Chrome/131.0.0.0 Safari/537.36","WebKit","Chrome","131.0.0.0","Windows","10.0","https://app.prolific.com/","en-US,en;q=0.9","6595ddebdbc6d36b1ef5462a","67949641171f97c04e14fb34","67951463b64fec483e23d92c","","null","<img id='selected' src='G_1.jpg' height='90'> <img src='G_5.jpg' height='90'> <img src='G_9.jpg' height='90'> <img src='G_7.jpg' height='90'> <img src='G_3.jpg' height='90'>","null","Animation0",""
"","","","","","html-keyboard-response","49","321201","0.0-9.0","37","1","2025-01-25 16:42:24","af8d355d56820e421d246a7037deb6e6","174.74.179.46","Mozilla/5.0 (Windows NT 10.0; Win64; x64) AppleWebKit/537.36 (KHTML, like Gecko) Chrome/131.0.0.0 Safari/537.36","WebKit","Chrome","131.0.0.0","Windows","10.0","https://app.prolific.com/","en-US,en;q=0.9","6595ddebdbc6d36b1ef5462a","67949641171f97c04e14fb34","67951463b64fec483e23d92c","","null","<img id='selected' src='G_1.jpg' height='90'> <img id='selected' src='G_5.jpg' height='90'> <img src='G_9.jpg' height='90'> <img src='G_7.jpg' height='90'> <img src='G_3.jpg' height='90'>","null","Animation0",""
"","","","","","html-keyboard-response","50","321718","0.0-10.0","37","1","2025-01-25 16:42:24","af8d355d56820e421d246a7037deb6e6","174.74.179.46","Mozilla/5.0 (Windows NT 10.0; Win64; x64) AppleWebKit/537.36 (KHTML, like Gecko) Chrome/131.0.0.0 Safari/537.36","WebKit","Chrome","131.0.0.0","Windows","10.0","https://app.prolific.com/","en-US,en;q=0.9","6595ddebdbc6d36b1ef5462a","67949641171f97c04e14fb34","67951463b64fec483e23d92c","","null","<img id='swapped' src='G_5.jpg' height='90'> <img id='swapped' src='G_1.jpg' height='90'> <img src='G_9.jpg' height='90'> <img src='G_7.jpg' height='90'> <img src='G_3.jpg' height='90'>","null","Animation0",""
"","","","","","html-keyboard-response","51","322030","0.0-11.0","37","1","2025-01-25 16:42:24","af8d355d56820e421d246a7037deb6e6","174.74.179.46","Mozilla/5.0 (Windows NT 10.0; Win64; x64) AppleWebKit/537.36 (KHTML, like Gecko) Chrome/131.0.0.0 Safari/537.36","WebKit","Chrome","131.0.0.0","Windows","10.0","https://app.prolific.com/","en-US,en;q=0.9","6595ddebdbc6d36b1ef5462a","67949641171f97c04e14fb34","67951463b64fec483e23d92c","","null","<img  src='G_5.jpg' height='90'> <img  src='G_1.jpg' height='90'> <img src='G_9.jpg' height='90'> <img src='G_7.jpg' height='90'> <img src='G_3.jpg' height='90'>","null","Animation0",""
"","","","","","html-keyboard-response","52","322540","0.0-12.0","37","1","2025-01-25 16:42:24","af8d355d56820e421d246a7037deb6e6","174.74.179.46","Mozilla/5.0 (Windows NT 10.0; Win64; x64) AppleWebKit/537.36 (KHTML, like Gecko) Chrome/131.0.0.0 Safari/537.36","WebKit","Chrome","131.0.0.0","Windows","10.0","https://app.prolific.com/","en-US,en;q=0.9","6595ddebdbc6d36b1ef5462a","67949641171f97c04e14fb34","67951463b64fec483e23d92c","","null","<img  src='G_5.jpg' height='90'> <img id='selected'  src='G_1.jpg' height='90'> <img src='G_9.jpg' height='90'> <img src='G_7.jpg' height='90'> <img src='G_3.jpg' height='90'>","null","Animation0",""
"","","","","","html-keyboard-response","53","323056","0.0-13.0","37","1","2025-01-25 16:42:24","af8d355d56820e421d246a7037deb6e6","174.74.179.46","Mozilla/5.0 (Windows NT 10.0; Win64; x64) AppleWebKit/537.36 (KHTML, like Gecko) Chrome/131.0.0.0 Safari/537.36","WebKit","Chrome","131.0.0.0","Windows","10.0","https://app.prolific.com/","en-US,en;q=0.9","6595ddebdbc6d36b1ef5462a","67949641171f97c04e14fb34","67951463b64fec483e23d92c","","null","<img  src='G_5.jpg' height='90'> <img id='selected'  src='G_1.jpg' height='90'> <img id='selected' src='G_9.jpg' height='90'> <img src='G_7.jpg' height='90'> <img src='G_3.jpg' height='90'>","null","Animation0",""
"","","","","","html-keyboard-response","54","323563","0.0-14.0","37","1","2025-01-25 16:42:24","af8d355d56820e421d246a7037deb6e6","174.74.179.46","Mozilla/5.0 (Windows NT 10.0; Win64; x64) AppleWebKit/537.36 (KHTML, like Gecko) Chrome/131.0.0.0 Safari/537.36","WebKit","Chrome","131.0.0.0","Windows","10.0","https://app.prolific.com/","en-US,en;q=0.9","6595ddebdbc6d36b1ef5462a","67949641171f97c04e14fb34","67951463b64fec483e23d92c","","null","<img  src='G_5.jpg' height='90'> <img id='selected'  src='G_1.jpg' height='90'> <img id='selected' src='G_9.jpg' height='90'> <img src='G_7.jpg' height='90'> <img src='G_3.jpg' height='90'>","null","Animation0",""
"","","","","","html-keyboard-response","55","323875","0.0-15.0","37","1","2025-01-25 16:42:24","af8d355d56820e421d246a7037deb6e6","174.74.179.46","Mozilla/5.0 (Windows NT 10.0; Win64; x64) AppleWebKit/537.36 (KHTML, like Gecko) Chrome/131.0.0.0 Safari/537.36","WebKit","Chrome","131.0.0.0","Windows","10.0","https://app.prolific.com/","en-US,en;q=0.9","6595ddebdbc6d36b1ef5462a","67949641171f97c04e14fb34","67951463b64fec483e23d92c","","null","<img  src='G_5.jpg' height='90'> <img   src='G_1.jpg' height='90'> <img  src='G_9.jpg' height='90'> <img src='G_7.jpg' height='90'> <img src='G_3.jpg' height='90'>","null","Animation0",""
"","","","","","html-keyboard-response","56","324383","0.0-16.0","37","1","2025-01-25 16:42:24","af8d355d56820e421d246a7037deb6e6","174.74.179.46","Mozilla/5.0 (Windows NT 10.0; Win64; x64) AppleWebKit/537.36 (KHTML, like Gecko) Chrome/131.0.0.0 Safari/537.36","WebKit","Chrome","131.0.0.0","Windows","10.0","https://app.prolific.com/","en-US,en;q=0.9","6595ddebdbc6d36b1ef5462a","67949641171f97c04e14fb34","67951463b64fec483e23d92c","","null","<img  src='G_5.jpg' height='90'> <img   src='G_1.jpg' height='90'> <img id='selected'  src='G_9.jpg' height='90'> <img src='G_7.jpg' height='90'> <img src='G_3.jpg' height='90'>","null","Animation0",""
"","","","","","html-keyboard-response","57","324893","0.0-17.0","37","1","2025-01-25 16:42:24","af8d355d56820e421d246a7037deb6e6","174.74.179.46","Mozilla/5.0 (Windows NT 10.0; Win64; x64) AppleWebKit/537.36 (KHTML, like Gecko) Chrome/131.0.0.0 Safari/537.36","WebKit","Chrome","131.0.0.0","Windows","10.0","https://app.prolific.com/","en-US,en;q=0.9","6595ddebdbc6d36b1ef5462a","67949641171f97c04e14fb34","67951463b64fec483e23d92c","","null","<img  src='G_5.jpg' height='90'> <img   src='G_1.jpg' height='90'> <img id='selected'  src='G_9.jpg' height='90'> <img id='selected' src='G_7.jpg' height='90'> <img src='G_3.jpg' height='90'>","null","Animation0",""
"","","","","","html-keyboard-response","58","325403","0.0-18.0","37","1","2025-01-25 16:42:24","af8d355d56820e421d246a7037deb6e6","174.74.179.46","Mozilla/5.0 (Windows NT 10.0; Win64; x64) AppleWebKit/537.36 (KHTML, like Gecko) Chrome/131.0.0.0 Safari/537.36","WebKit","Chrome","131.0.0.0","Windows","10.0","https://app.prolific.com/","en-US,en;q=0.9","6595ddebdbc6d36b1ef5462a","67949641171f97c04e14fb34","67951463b64fec483e23d92c","","null","<img  src='G_5.jpg' height='90'> <img   src='G_1.jpg' height='90'> <img id='selected'  src='G_9.jpg' height='90'> <img id='selected' src='G_7.jpg' height='90'> <img src='G_3.jpg' height='90'>","null","Animation0",""
"","","","","","html-keyboard-response","59","325710","0.0-19.0","37","1","2025-01-25 16:42:24","af8d355d56820e421d246a7037deb6e6","174.74.179.46","Mozilla/5.0 (Windows NT 10.0; Win64; x64) AppleWebKit/537.36 (KHTML, like Gecko) Chrome/131.0.0.0 Safari/537.36","WebKit","Chrome","131.0.0.0","Windows","10.0","https://app.prolific.com/","en-US,en;q=0.9","6595ddebdbc6d36b1ef5462a","67949641171f97c04e14fb34","67951463b64fec483e23d92c","","null","<img  src='G_5.jpg' height='90'> <img   src='G_1.jpg' height='90'> <img   src='G_9.jpg' height='90'> <img  src='G_7.jpg' height='90'> <img src='G_3.jpg' height='90'>","null","Animation0",""
"","","","","","html-keyboard-response","60","326220","0.0-20.0","37","1","2025-01-25 16:42:24","af8d355d56820e421d246a7037deb6e6","174.74.179.46","Mozilla/5.0 (Windows NT 10.0; Win64; x64) AppleWebKit/537.36 (KHTML, like Gecko) Chrome/131.0.0.0 Safari/537.36","WebKit","Chrome","131.0.0.0","Windows","10.0","https://app.prolific.com/","en-US,en;q=0.9","6595ddebdbc6d36b1ef5462a","67949641171f97c04e14fb34","67951463b64fec483e23d92c","","null","<img  src='G_5.jpg' height='90'> <img   src='G_1.jpg' height='90'> <img   src='G_9.jpg' height='90'> <img id='selected'  src='G_7.jpg' height='90'> <img src='G_3.jpg' height='90'>","null","Animation0",""
"","","","","","html-keyboard-response","61","326738","0.0-21.0","37","1","2025-01-25 16:42:24","af8d355d56820e421d246a7037deb6e6","174.74.179.46","Mozilla/5.0 (Windows NT 10.0; Win64; x64) AppleWebKit/537.36 (KHTML, like Gecko) Chrome/131.0.0.0 Safari/537.36","WebKit","Chrome","131.0.0.0","Windows","10.0","https://app.prolific.com/","en-US,en;q=0.9","6595ddebdbc6d36b1ef5462a","67949641171f97c04e14fb34","67951463b64fec483e23d92c","","null","<img  src='G_5.jpg' height='90'> <img   src='G_1.jpg' height='90'> <img   src='G_9.jpg' height='90'> <img id='selected'  src='G_7.jpg' height='90'> <img id='selected' src='G_3.jpg' height='90'>","null","Animation0",""
"","","","","","html-keyboard-response","62","327244","0.0-22.0","37","1","2025-01-25 16:42:24","af8d355d56820e421d246a7037deb6e6","174.74.179.46","Mozilla/5.0 (Windows NT 10.0; Win64; x64) AppleWebKit/537.36 (KHTML, like Gecko) Chrome/131.0.0.0 Safari/537.36","WebKit","Chrome","131.0.0.0","Windows","10.0","https://app.prolific.com/","en-US,en;q=0.9","6595ddebdbc6d36b1ef5462a","67949641171f97c04e14fb34","67951463b64fec483e23d92c","","null","<img  src='G_5.jpg' height='90'> <img   src='G_1.jpg' height='90'> <img   src='G_9.jpg' height='90'> <img id='selected'  src='G_7.jpg' height='90'> <img id='selected' src='G_3.jpg' height='90'>","null","Animation0",""
"","","","","","html-keyboard-response","63","327550","0.0-23.0","37","1","2025-01-25 16:42:24","af8d355d56820e421d246a7037deb6e6","174.74.179.46","Mozilla/5.0 (Windows NT 10.0; Win64; x64) AppleWebKit/537.36 (KHTML, like Gecko) Chrome/131.0.0.0 Safari/537.36","WebKit","Chrome","131.0.0.0","Windows","10.0","https://app.prolific.com/","en-US,en;q=0.9","6595ddebdbc6d36b1ef5462a","67949641171f97c04e14fb34","67951463b64fec483e23d92c","","null","<img  src='G_5.jpg' height='90'> <img   src='G_1.jpg' height='90'> <img   src='G_9.jpg' height='90'> <img   src='G_7.jpg' height='90'> <img  src='G_3.jpg' height='90'>","null","Animation0",""
"","","","","","html-keyboard-response","64","330732","0.0-24.0","37","1","2025-01-25 16:42:24","af8d355d56820e421d246a7037deb6e6","174.74.179.46","Mozilla/5.0 (Windows NT 10.0; Win64; x64) AppleWebKit/537.36 (KHTML, like Gecko) Chrome/131.0.0.0 Safari/537.36","WebKit","Chrome","131.0.0.0","Windows","10.0","https://app.prolific.com/","en-US,en;q=0.9","6595ddebdbc6d36b1ef5462a","67949641171f97c04e14fb34","67951463b64fec483e23d92c","","3180","[""Did you notice any patterns? <br><br>Press Enter to watch that example again and follow the steps of Omgne Sort.""]","enter","",""
"","","","","","html-button-response","65","331146","0.0-25.0","37","1","2025-01-25 16:42:24","af8d355d56820e421d246a7037deb6e6","174.74.179.46","Mozilla/5.0 (Windows NT 10.0; Win64; x64) AppleWebKit/537.36 (KHTML, like Gecko) Chrome/131.0.0.0 Safari/537.36","WebKit","Chrome","131.0.0.0","Windows","10.0","https://app.prolific.com/","en-US,en;q=0.9","6595ddebdbc6d36b1ef5462a","67949641171f97c04e14fb34","67951463b64fec483e23d92c","","null","<img id='selected' src='G_1.jpg' height='90'> <img src='G_5.jpg' height='90'> <img src='G_9.jpg' height='90'> <img src='G_7.jpg' height='90'> <img src='G_3.jpg' height='90'>","null","Learning example 0",""
"","","","","","html-button-response","66","331465","0.0-26.0","37","1","2025-01-25 16:42:24","af8d355d56820e421d246a7037deb6e6","174.74.179.46","Mozilla/5.0 (Windows NT 10.0; Win64; x64) AppleWebKit/537.36 (KHTML, like Gecko) Chrome/131.0.0.0 Safari/537.36","WebKit","Chrome","131.0.0.0","Windows","10.0","https://app.prolific.com/","en-US,en;q=0.9","6595ddebdbc6d36b1ef5462a","67949641171f97c04e14fb34","67951463b64fec483e23d92c","","null","<img id='selected' src='G_1.jpg' height='90'> <img id='selected' src='G_5.jpg' height='90'> <img src='G_9.jpg' height='90'> <img src='G_7.jpg' height='90'> <img src='G_3.jpg' height='90'>","null","Learning example 0",""
"","","","","","html-button-response","67","331782","0.0-27.0","37","1","2025-01-25 16:42:24","af8d355d56820e421d246a7037deb6e6","174.74.179.46","Mozilla/5.0 (Windows NT 10.0; Win64; x64) AppleWebKit/537.36 (KHTML, like Gecko) Chrome/131.0.0.0 Safari/537.36","WebKit","Chrome","131.0.0.0","Windows","10.0","https://app.prolific.com/","en-US,en;q=0.9","6595ddebdbc6d36b1ef5462a","67949641171f97c04e14fb34","67951463b64fec483e23d92c","","null","<img id='swapped' src='G_5.jpg' height='90'> <img id='swapped' src='G_1.jpg' height='90'> <img src='G_9.jpg' height='90'> <img src='G_7.jpg' height='90'> <img src='G_3.jpg' height='90'>","null","Learning example 0",""
"","","","","","html-button-response","68","349851","0.0-28.0-0.0-0.0","37","1","2025-01-25 16:42:24","af8d355d56820e421d246a7037deb6e6","174.74.179.46","Mozilla/5.0 (Windows NT 10.0; Win64; x64) AppleWebKit/537.36 (KHTML, like Gecko) Chrome/131.0.0.0 Safari/537.36","WebKit","Chrome","131.0.0.0","Windows","10.0","https://app.prolific.com/","en-US,en;q=0.9","6595ddebdbc6d36b1ef5462a","67949641171f97c04e14fb34","67951463b64fec483e23d92c","","18066","<img id='swapped' src='G_5.jpg' height='90'> <img id='swapped' src='G_1.jpg' height='90'> <img src='G_9.jpg' height='90'> <img src='G_7.jpg' height='90'> <img src='G_3.jpg' height='90'>","0","Learning example 0",""
"","","","","","html-button-response","69","350896","0.0-28.1-0.1-0.1","37","1","2025-01-25 16:42:24","af8d355d56820e421d246a7037deb6e6","174.74.179.46","Mozilla/5.0 (Windows NT 10.0; Win64; x64) AppleWebKit/537.36 (KHTML, like Gecko) Chrome/131.0.0.0 Safari/537.36","WebKit","Chrome","131.0.0.0","Windows","10.0","https://app.prolific.com/","en-US,en;q=0.9","6595ddebdbc6d36b1ef5462a","67949641171f97c04e14fb34","67951463b64fec483e23d92c","","1041","<img id='swapped' src='G_5.jpg' height='90'> <img id='swapped' src='G_1.jpg' height='90'> <img src='G_9.jpg' height='90'> <img src='G_7.jpg' height='90'> <img src='G_3.jpg' height='90'>","1","Learning example 0",""
"","","","","","html-button-response","70","351115","0.0-29.0","37","1","2025-01-25 16:42:24","af8d355d56820e421d246a7037deb6e6","174.74.179.46","Mozilla/5.0 (Windows NT 10.0; Win64; x64) AppleWebKit/537.36 (KHTML, like Gecko) Chrome/131.0.0.0 Safari/537.36","WebKit","Chrome","131.0.0.0","Windows","10.0","https://app.prolific.com/","en-US,en;q=0.9","6595ddebdbc6d36b1ef5462a","67949641171f97c04e14fb34","67951463b64fec483e23d92c","","null","<img  src='G_5.jpg' height='90'> <img  src='G_1.jpg' height='90'> <img src='G_9.jpg' height='90'> <img src='G_7.jpg' height='90'> <img src='G_3.jpg' height='90'>","null","Learning example 0",""
"","","","","","html-button-response","71","351528","0.0-30.0","37","1","2025-01-25 16:42:24","af8d355d56820e421d246a7037deb6e6","174.74.179.46","Mozilla/5.0 (Windows NT 10.0; Win64; x64) AppleWebKit/537.36 (KHTML, like Gecko) Chrome/131.0.0.0 Safari/537.36","WebKit","Chrome","131.0.0.0","Windows","10.0","https://app.prolific.com/","en-US,en;q=0.9","6595ddebdbc6d36b1ef5462a","67949641171f97c04e14fb34","67951463b64fec483e23d92c","","null","<img  src='G_5.jpg' height='90'> <img id='selected'  src='G_1.jpg' height='90'> <img src='G_9.jpg' height='90'> <img src='G_7.jpg' height='90'> <img src='G_3.jpg' height='90'>","null","Learning example 0",""
"","","","","","html-button-response","72","351847","0.0-31.0","37","1","2025-01-25 16:42:24","af8d355d56820e421d246a7037deb6e6","174.74.179.46","Mozilla/5.0 (Windows NT 10.0; Win64; x64) AppleWebKit/537.36 (KHTML, like Gecko) Chrome/131.0.0.0 Safari/537.36","WebKit","Chrome","131.0.0.0","Windows","10.0","https://app.prolific.com/","en-US,en;q=0.9","6595ddebdbc6d36b1ef5462a","67949641171f97c04e14fb34","67951463b64fec483e23d92c","","null","<img  src='G_5.jpg' height='90'> <img id='selected'  src='G_1.jpg' height='90'> <img id='selected' src='G_9.jpg' height='90'> <img src='G_7.jpg' height='90'> <img src='G_3.jpg' height='90'>","null","Learning example 0",""
"","","","","","html-button-response","73","352161","0.0-32.0","37","1","2025-01-25 16:42:24","af8d355d56820e421d246a7037deb6e6","174.74.179.46","Mozilla/5.0 (Windows NT 10.0; Win64; x64) AppleWebKit/537.36 (KHTML, like Gecko) Chrome/131.0.0.0 Safari/537.36","WebKit","Chrome","131.0.0.0","Windows","10.0","https://app.prolific.com/","en-US,en;q=0.9","6595ddebdbc6d36b1ef5462a","67949641171f97c04e14fb34","67951463b64fec483e23d92c","","null","<img  src='G_5.jpg' height='90'> <img id='selected'  src='G_1.jpg' height='90'> <img id='selected' src='G_9.jpg' height='90'> <img src='G_7.jpg' height='90'> <img src='G_3.jpg' height='90'>","null","Learning example 0",""
"","","","","","html-button-response","74","353890","0.0-33.0-0.0-0.0","37","1","2025-01-25 16:42:24","af8d355d56820e421d246a7037deb6e6","174.74.179.46","Mozilla/5.0 (Windows NT 10.0; Win64; x64) AppleWebKit/537.36 (KHTML, like Gecko) Chrome/131.0.0.0 Safari/537.36","WebKit","Chrome","131.0.0.0","Windows","10.0","https://app.prolific.com/","en-US,en;q=0.9","6595ddebdbc6d36b1ef5462a","67949641171f97c04e14fb34","67951463b64fec483e23d92c","","1726","<img  src='G_5.jpg' height='90'> <img id='selected'  src='G_1.jpg' height='90'> <img id='selected' src='G_9.jpg' height='90'> <img src='G_7.jpg' height='90'> <img src='G_3.jpg' height='90'>","1","Learning example 0",""
"","","","","","html-button-response","75","354847","0.0-33.1-0.1-0.1","37","1","2025-01-25 16:42:24","af8d355d56820e421d246a7037deb6e6","174.74.179.46","Mozilla/5.0 (Windows NT 10.0; Win64; x64) AppleWebKit/537.36 (KHTML, like Gecko) Chrome/131.0.0.0 Safari/537.36","WebKit","Chrome","131.0.0.0","Windows","10.0","https://app.prolific.com/","en-US,en;q=0.9","6595ddebdbc6d36b1ef5462a","67949641171f97c04e14fb34","67951463b64fec483e23d92c","","953","<img  src='G_5.jpg' height='90'> <img id='selected'  src='G_1.jpg' height='90'> <img id='selected' src='G_9.jpg' height='90'> <img src='G_7.jpg' height='90'> <img src='G_3.jpg' height='90'>","2","Learning example 0",""
"","","","","","html-button-response","76","355053","0.0-34.0","37","1","2025-01-25 16:42:24","af8d355d56820e421d246a7037deb6e6","174.74.179.46","Mozilla/5.0 (Windows NT 10.0; Win64; x64) AppleWebKit/537.36 (KHTML, like Gecko) Chrome/131.0.0.0 Safari/537.36","WebKit","Chrome","131.0.0.0","Windows","10.0","https://app.prolific.com/","en-US,en;q=0.9","6595ddebdbc6d36b1ef5462a","67949641171f97c04e14fb34","67951463b64fec483e23d92c","","null","<img  src='G_5.jpg' height='90'> <img   src='G_1.jpg' height='90'> <img  src='G_9.jpg' height='90'> <img src='G_7.jpg' height='90'> <img src='G_3.jpg' height='90'>","null","Learning example 0",""
"","","","","","html-button-response","77","355459","0.0-35.0","37","1","2025-01-25 16:42:24","af8d355d56820e421d246a7037deb6e6","174.74.179.46","Mozilla/5.0 (Windows NT 10.0; Win64; x64) AppleWebKit/537.36 (KHTML, like Gecko) Chrome/131.0.0.0 Safari/537.36","WebKit","Chrome","131.0.0.0","Windows","10.0","https://app.prolific.com/","en-US,en;q=0.9","6595ddebdbc6d36b1ef5462a","67949641171f97c04e14fb34","67951463b64fec483e23d92c","","null","<img  src='G_5.jpg' height='90'> <img   src='G_1.jpg' height='90'> <img id='selected'  src='G_9.jpg' height='90'> <img src='G_7.jpg' height='90'> <img src='G_3.jpg' height='90'>","null","Learning example 0",""
"","","","","","html-button-response","78","355774","0.0-36.0","37","1","2025-01-25 16:42:24","af8d355d56820e421d246a7037deb6e6","174.74.179.46","Mozilla/5.0 (Windows NT 10.0; Win64; x64) AppleWebKit/537.36 (KHTML, like Gecko) Chrome/131.0.0.0 Safari/537.36","WebKit","Chrome","131.0.0.0","Windows","10.0","https://app.prolific.com/","en-US,en;q=0.9","6595ddebdbc6d36b1ef5462a","67949641171f97c04e14fb34","67951463b64fec483e23d92c","","null","<img  src='G_5.jpg' height='90'> <img   src='G_1.jpg' height='90'> <img id='selected'  src='G_9.jpg' height='90'> <img id='selected' src='G_7.jpg' height='90'> <img src='G_3.jpg' height='90'>","null","Learning example 0",""
"","","","","","html-button-response","79","356088","0.0-37.0","37","1","2025-01-25 16:42:24","af8d355d56820e421d246a7037deb6e6","174.74.179.46","Mozilla/5.0 (Windows NT 10.0; Win64; x64) AppleWebKit/537.36 (KHTML, like Gecko) Chrome/131.0.0.0 Safari/537.36","WebKit","Chrome","131.0.0.0","Windows","10.0","https://app.prolific.com/","en-US,en;q=0.9","6595ddebdbc6d36b1ef5462a","67949641171f97c04e14fb34","67951463b64fec483e23d92c","","null","<img  src='G_5.jpg' height='90'> <img   src='G_1.jpg' height='90'> <img id='selected'  src='G_9.jpg' height='90'> <img id='selected' src='G_7.jpg' height='90'> <img src='G_3.jpg' height='90'>","null","Learning example 0",""
"","","","","","html-button-response","80","356609","0.0-38.0-0.0-0.0","37","1","2025-01-25 16:42:24","af8d355d56820e421d246a7037deb6e6","174.74.179.46","Mozilla/5.0 (Windows NT 10.0; Win64; x64) AppleWebKit/537.36 (KHTML, like Gecko) Chrome/131.0.0.0 Safari/537.36","WebKit","Chrome","131.0.0.0","Windows","10.0","https://app.prolific.com/","en-US,en;q=0.9","6595ddebdbc6d36b1ef5462a","67949641171f97c04e14fb34","67951463b64fec483e23d92c","","517","<img  src='G_5.jpg' height='90'> <img   src='G_1.jpg' height='90'> <img id='selected'  src='G_9.jpg' height='90'> <img id='selected' src='G_7.jpg' height='90'> <img src='G_3.jpg' height='90'>","2","Learning example 0",""
"","","","","","html-button-response","81","357583","0.0-38.1-0.1-0.1","37","1","2025-01-25 16:42:24","af8d355d56820e421d246a7037deb6e6","174.74.179.46","Mozilla/5.0 (Windows NT 10.0; Win64; x64) AppleWebKit/537.36 (KHTML, like Gecko) Chrome/131.0.0.0 Safari/537.36","WebKit","Chrome","131.0.0.0","Windows","10.0","https://app.prolific.com/","en-US,en;q=0.9","6595ddebdbc6d36b1ef5462a","67949641171f97c04e14fb34","67951463b64fec483e23d92c","","970","<img  src='G_5.jpg' height='90'> <img   src='G_1.jpg' height='90'> <img id='selected'  src='G_9.jpg' height='90'> <img id='selected' src='G_7.jpg' height='90'> <img src='G_3.jpg' height='90'>","3","Learning example 0",""
"","","","","","html-button-response","82","357803","0.0-39.0","37","1","2025-01-25 16:42:24","af8d355d56820e421d246a7037deb6e6","174.74.179.46","Mozilla/5.0 (Windows NT 10.0; Win64; x64) AppleWebKit/537.36 (KHTML, like Gecko) Chrome/131.0.0.0 Safari/537.36","WebKit","Chrome","131.0.0.0","Windows","10.0","https://app.prolific.com/","en-US,en;q=0.9","6595ddebdbc6d36b1ef5462a","67949641171f97c04e14fb34","67951463b64fec483e23d92c","","null","<img  src='G_5.jpg' height='90'> <img   src='G_1.jpg' height='90'> <img   src='G_9.jpg' height='90'> <img  src='G_7.jpg' height='90'> <img src='G_3.jpg' height='90'>","null","Learning example 0",""
"","","","","","html-button-response","83","358210","0.0-40.0","37","1","2025-01-25 16:42:24","af8d355d56820e421d246a7037deb6e6","174.74.179.46","Mozilla/5.0 (Windows NT 10.0; Win64; x64) AppleWebKit/537.36 (KHTML, like Gecko) Chrome/131.0.0.0 Safari/537.36","WebKit","Chrome","131.0.0.0","Windows","10.0","https://app.prolific.com/","en-US,en;q=0.9","6595ddebdbc6d36b1ef5462a","67949641171f97c04e14fb34","67951463b64fec483e23d92c","","null","<img  src='G_5.jpg' height='90'> <img   src='G_1.jpg' height='90'> <img   src='G_9.jpg' height='90'> <img id='selected'  src='G_7.jpg' height='90'> <img src='G_3.jpg' height='90'>","null","Learning example 0",""
"","","","","","html-button-response","84","358526","0.0-41.0","37","1","2025-01-25 16:42:24","af8d355d56820e421d246a7037deb6e6","174.74.179.46","Mozilla/5.0 (Windows NT 10.0; Win64; x64) AppleWebKit/537.36 (KHTML, like Gecko) Chrome/131.0.0.0 Safari/537.36","WebKit","Chrome","131.0.0.0","Windows","10.0","https://app.prolific.com/","en-US,en;q=0.9","6595ddebdbc6d36b1ef5462a","67949641171f97c04e14fb34","67951463b64fec483e23d92c","","null","<img  src='G_5.jpg' height='90'> <img   src='G_1.jpg' height='90'> <img   src='G_9.jpg' height='90'> <img id='selected'  src='G_7.jpg' height='90'> <img id='selected' src='G_3.jpg' height='90'>","null","Learning example 0",""
"","","","","","html-button-response","85","358813","0.0-42.0","37","1","2025-01-25 16:42:24","af8d355d56820e421d246a7037deb6e6","174.74.179.46","Mozilla/5.0 (Windows NT 10.0; Win64; x64) AppleWebKit/537.36 (KHTML, like Gecko) Chrome/131.0.0.0 Safari/537.36","WebKit","Chrome","131.0.0.0","Windows","10.0","https://app.prolific.com/","en-US,en;q=0.9","6595ddebdbc6d36b1ef5462a","67949641171f97c04e14fb34","67951463b64fec483e23d92c","","283","<img  src='G_5.jpg' height='90'> <img   src='G_1.jpg' height='90'> <img   src='G_9.jpg' height='90'> <img id='selected'  src='G_7.jpg' height='90'> <img id='selected' src='G_3.jpg' height='90'>","3","Learning example 0",""
"","","","","","html-button-response","86","360266","0.0-43.0-0.0-0.0","37","1","2025-01-25 16:42:24","af8d355d56820e421d246a7037deb6e6","174.74.179.46","Mozilla/5.0 (Windows NT 10.0; Win64; x64) AppleWebKit/537.36 (KHTML, like Gecko) Chrome/131.0.0.0 Safari/537.36","WebKit","Chrome","131.0.0.0","Windows","10.0","https://app.prolific.com/","en-US,en;q=0.9","6595ddebdbc6d36b1ef5462a","67949641171f97c04e14fb34","67951463b64fec483e23d92c","","1448","<img  src='G_5.jpg' height='90'> <img   src='G_1.jpg' height='90'> <img   src='G_9.jpg' height='90'> <img id='selected'  src='G_7.jpg' height='90'> <img id='selected' src='G_3.jpg' height='90'>","3","Learning example 0",""
"","","","","","html-button-response","87","361355","0.0-43.1-0.1-0.1","37","1","2025-01-25 16:42:24","af8d355d56820e421d246a7037deb6e6","174.74.179.46","Mozilla/5.0 (Windows NT 10.0; Win64; x64) AppleWebKit/537.36 (KHTML, like Gecko) Chrome/131.0.0.0 Safari/537.36","WebKit","Chrome","131.0.0.0","Windows","10.0","https://app.prolific.com/","en-US,en;q=0.9","6595ddebdbc6d36b1ef5462a","67949641171f97c04e14fb34","67951463b64fec483e23d92c","","1082","<img  src='G_5.jpg' height='90'> <img   src='G_1.jpg' height='90'> <img   src='G_9.jpg' height='90'> <img id='selected'  src='G_7.jpg' height='90'> <img id='selected' src='G_3.jpg' height='90'>","4","Learning example 0",""
"","","","","","html-button-response","88","361562","0.0-44.0","37","1","2025-01-25 16:42:24","af8d355d56820e421d246a7037deb6e6","174.74.179.46","Mozilla/5.0 (Windows NT 10.0; Win64; x64) AppleWebKit/537.36 (KHTML, like Gecko) Chrome/131.0.0.0 Safari/537.36","WebKit","Chrome","131.0.0.0","Windows","10.0","https://app.prolific.com/","en-US,en;q=0.9","6595ddebdbc6d36b1ef5462a","67949641171f97c04e14fb34","67951463b64fec483e23d92c","","null","<img  src='G_5.jpg' height='90'> <img   src='G_1.jpg' height='90'> <img   src='G_9.jpg' height='90'> <img   src='G_7.jpg' height='90'> <img  src='G_3.jpg' height='90'>","null","Learning example 0",""
"","","","","","html-keyboard-response","89","367540","0.0-45.0","37","1","2025-01-25 16:42:24","af8d355d56820e421d246a7037deb6e6","174.74.179.46","Mozilla/5.0 (Windows NT 10.0; Win64; x64) AppleWebKit/537.36 (KHTML, like Gecko) Chrome/131.0.0.0 Safari/537.36","WebKit","Chrome","131.0.0.0","Windows","10.0","https://app.prolific.com/","en-US,en;q=0.9","6595ddebdbc6d36b1ef5462a","67949641171f97c04e14fb34","67951463b64fec483e23d92c","","5975","[""Final order was 1,2,3,4,5. The initial order was 2,1,3,4,5.<br>It took 1 swaps to sort it correctly with Omgne Sort. <br><br>Press Enter to continue.""]","enter","",""
"","","","","","html-keyboard-response","90","371331","0.0-46.0","37","1","2025-01-25 16:42:24","af8d355d56820e421d246a7037deb6e6","174.74.179.46","Mozilla/5.0 (Windows NT 10.0; Win64; x64) AppleWebKit/537.36 (KHTML, like Gecko) Chrome/131.0.0.0 Safari/537.36","WebKit","Chrome","131.0.0.0","Windows","10.0","https://app.prolific.com/","en-US,en;q=0.9","6595ddebdbc6d36b1ef5462a","67949641171f97c04e14fb34","67951463b64fec483e23d92c","","3789","[""Example 2<br><br>You will watch Omnge Sort in action. Try to identify any patterns in the comparisons made by this method. <br><br>Press Enter to continue.""]","enter","",""
"","","","","","html-keyboard-response","91","371838","0.0-47.0","37","1","2025-01-25 16:42:24","af8d355d56820e421d246a7037deb6e6","174.74.179.46","Mozilla/5.0 (Windows NT 10.0; Win64; x64) AppleWebKit/537.36 (KHTML, like Gecko) Chrome/131.0.0.0 Safari/537.36","WebKit","Chrome","131.0.0.0","Windows","10.0","https://app.prolific.com/","en-US,en;q=0.9","6595ddebdbc6d36b1ef5462a","67949641171f97c04e14fb34","67951463b64fec483e23d92c","","null","<img id='selected' src='G_5.jpg' height='90'> <img src='G_8.jpg' height='90'> <img src='G_6.jpg' height='90'> <img src='G_1.jpg' height='90'> <img src='G_2.jpg' height='90'> <img src='G_4.jpg' height='90'> <img src='G_3.jpg' height='90'> <img src='G_7.jpg' height='90'>","null","Animation1",""
"","","","","","html-keyboard-response","92","372347","0.0-48.0","37","1","2025-01-25 16:42:24","af8d355d56820e421d246a7037deb6e6","174.74.179.46","Mozilla/5.0 (Windows NT 10.0; Win64; x64) AppleWebKit/537.36 (KHTML, like Gecko) Chrome/131.0.0.0 Safari/537.36","WebKit","Chrome","131.0.0.0","Windows","10.0","https://app.prolific.com/","en-US,en;q=0.9","6595ddebdbc6d36b1ef5462a","67949641171f97c04e14fb34","67951463b64fec483e23d92c","","null","<img id='selected' src='G_5.jpg' height='90'> <img id='selected' src='G_8.jpg' height='90'> <img src='G_6.jpg' height='90'> <img src='G_1.jpg' height='90'> <img src='G_2.jpg' height='90'> <img src='G_4.jpg' height='90'> <img src='G_3.jpg' height='90'> <img src='G_7.jpg' height='90'>","null","Animation1",""
"","","","","","html-keyboard-response","93","372859","0.0-49.0","37","1","2025-01-25 16:42:24","af8d355d56820e421d246a7037deb6e6","174.74.179.46","Mozilla/5.0 (Windows NT 10.0; Win64; x64) AppleWebKit/537.36 (KHTML, like Gecko) Chrome/131.0.0.0 Safari/537.36","WebKit","Chrome","131.0.0.0","Windows","10.0","https://app.prolific.com/","en-US,en;q=0.9","6595ddebdbc6d36b1ef5462a","67949641171f97c04e14fb34","67951463b64fec483e23d92c","","null","<img id='selected' src='G_5.jpg' height='90'> <img id='selected' src='G_8.jpg' height='90'> <img src='G_6.jpg' height='90'> <img src='G_1.jpg' height='90'> <img src='G_2.jpg' height='90'> <img src='G_4.jpg' height='90'> <img src='G_3.jpg' height='90'> <img src='G_7.jpg' height='90'>","null","Animation1",""
"","","","","","html-keyboard-response","94","373165","0.0-50.0","37","1","2025-01-25 16:42:24","af8d355d56820e421d246a7037deb6e6","174.74.179.46","Mozilla/5.0 (Windows NT 10.0; Win64; x64) AppleWebKit/537.36 (KHTML, like Gecko) Chrome/131.0.0.0 Safari/537.36","WebKit","Chrome","131.0.0.0","Windows","10.0","https://app.prolific.com/","en-US,en;q=0.9","6595ddebdbc6d36b1ef5462a","67949641171f97c04e14fb34","67951463b64fec483e23d92c","","null","<img  src='G_5.jpg' height='90'> <img  src='G_8.jpg' height='90'> <img src='G_6.jpg' height='90'> <img src='G_1.jpg' height='90'> <img src='G_2.jpg' height='90'> <img src='G_4.jpg' height='90'> <img src='G_3.jpg' height='90'> <img src='G_7.jpg' height='90'>","null","Animation1",""
"","","","","","html-keyboard-response","95","373673","0.0-51.0","37","1","2025-01-25 16:42:24","af8d355d56820e421d246a7037deb6e6","174.74.179.46","Mozilla/5.0 (Windows NT 10.0; Win64; x64) AppleWebKit/537.36 (KHTML, like Gecko) Chrome/131.0.0.0 Safari/537.36","WebKit","Chrome","131.0.0.0","Windows","10.0","https://app.prolific.com/","en-US,en;q=0.9","6595ddebdbc6d36b1ef5462a","67949641171f97c04e14fb34","67951463b64fec483e23d92c","","null","<img  src='G_5.jpg' height='90'> <img id='selected'  src='G_8.jpg' height='90'> <img src='G_6.jpg' height='90'> <img src='G_1.jpg' height='90'> <img src='G_2.jpg' height='90'> <img src='G_4.jpg' height='90'> <img src='G_3.jpg' height='90'> <img src='G_7.jpg' height='90'>","null","Animation1",""
"","","","","","html-keyboard-response","96","374189","0.0-52.0","37","1","2025-01-25 16:42:24","af8d355d56820e421d246a7037deb6e6","174.74.179.46","Mozilla/5.0 (Windows NT 10.0; Win64; x64) AppleWebKit/537.36 (KHTML, like Gecko) Chrome/131.0.0.0 Safari/537.36","WebKit","Chrome","131.0.0.0","Windows","10.0","https://app.prolific.com/","en-US,en;q=0.9","6595ddebdbc6d36b1ef5462a","67949641171f97c04e14fb34","67951463b64fec483e23d92c","","null","<img  src='G_5.jpg' height='90'> <img id='selected'  src='G_8.jpg' height='90'> <img id='selected' src='G_6.jpg' height='90'> <img src='G_1.jpg' height='90'> <img src='G_2.jpg' height='90'> <img src='G_4.jpg' height='90'> <img src='G_3.jpg' height='90'> <img src='G_7.jpg' height='90'>","null","Animation1",""
"","","","","","html-keyboard-response","97","374702","0.0-53.0","37","1","2025-01-25 16:42:24","af8d355d56820e421d246a7037deb6e6","174.74.179.46","Mozilla/5.0 (Windows NT 10.0; Win64; x64) AppleWebKit/537.36 (KHTML, like Gecko) Chrome/131.0.0.0 Safari/537.36","WebKit","Chrome","131.0.0.0","Windows","10.0","https://app.prolific.com/","en-US,en;q=0.9","6595ddebdbc6d36b1ef5462a","67949641171f97c04e14fb34","67951463b64fec483e23d92c","","null","<img  src='G_5.jpg' height='90'> <img id='swapped' src='G_6.jpg' height='90'> <img id='swapped'  src='G_8.jpg' height='90'> <img src='G_1.jpg' height='90'> <img src='G_2.jpg' height='90'> <img src='G_4.jpg' height='90'> <img src='G_3.jpg' height='90'> <img src='G_7.jpg' height='90'>","null","Animation1",""
"","","","","","html-keyboard-response","98","375017","0.0-54.0","37","1","2025-01-25 16:42:24","af8d355d56820e421d246a7037deb6e6","174.74.179.46","Mozilla/5.0 (Windows NT 10.0; Win64; x64) AppleWebKit/537.36 (KHTML, like Gecko) Chrome/131.0.0.0 Safari/537.36","WebKit","Chrome","131.0.0.0","Windows","10.0","https://app.prolific.com/","en-US,en;q=0.9","6595ddebdbc6d36b1ef5462a","67949641171f97c04e14fb34","67951463b64fec483e23d92c","","null","<img  src='G_5.jpg' height='90'> <img  src='G_6.jpg' height='90'> <img   src='G_8.jpg' height='90'> <img src='G_1.jpg' height='90'> <img src='G_2.jpg' height='90'> <img src='G_4.jpg' height='90'> <img src='G_3.jpg' height='90'> <img src='G_7.jpg' height='90'>","null","Animation1",""
"","","","","","html-keyboard-response","99","375523","0.0-55.0","37","1","2025-01-25 16:42:24","af8d355d56820e421d246a7037deb6e6","174.74.179.46","Mozilla/5.0 (Windows NT 10.0; Win64; x64) AppleWebKit/537.36 (KHTML, like Gecko) Chrome/131.0.0.0 Safari/537.36","WebKit","Chrome","131.0.0.0","Windows","10.0","https://app.prolific.com/","en-US,en;q=0.9","6595ddebdbc6d36b1ef5462a","67949641171f97c04e14fb34","67951463b64fec483e23d92c","","null","<img id='selected'  src='G_5.jpg' height='90'> <img  src='G_6.jpg' height='90'> <img   src='G_8.jpg' height='90'> <img src='G_1.jpg' height='90'> <img src='G_2.jpg' height='90'> <img src='G_4.jpg' height='90'> <img src='G_3.jpg' height='90'> <img src='G_7.jpg' height='90'>","null","Animation1",""
"","","","","","html-keyboard-response","100","376033","0.0-56.0","37","1","2025-01-25 16:42:24","af8d355d56820e421d246a7037deb6e6","174.74.179.46","Mozilla/5.0 (Windows NT 10.0; Win64; x64) AppleWebKit/537.36 (KHTML, like Gecko) Chrome/131.0.0.0 Safari/537.36","WebKit","Chrome","131.0.0.0","Windows","10.0","https://app.prolific.com/","en-US,en;q=0.9","6595ddebdbc6d36b1ef5462a","67949641171f97c04e14fb34","67951463b64fec483e23d92c","","null","<img id='selected'  src='G_5.jpg' height='90'> <img id='selected'  src='G_6.jpg' height='90'> <img   src='G_8.jpg' height='90'> <img src='G_1.jpg' height='90'> <img src='G_2.jpg' height='90'> <img src='G_4.jpg' height='90'> <img src='G_3.jpg' height='90'> <img src='G_7.jpg' height='90'>","null","Animation1",""
"","","","","","html-keyboard-response","101","376544","0.0-57.0","37","1","2025-01-25 16:42:24","af8d355d56820e421d246a7037deb6e6","174.74.179.46","Mozilla/5.0 (Windows NT 10.0; Win64; x64) AppleWebKit/537.36 (KHTML, like Gecko) Chrome/131.0.0.0 Safari/537.36","WebKit","Chrome","131.0.0.0","Windows","10.0","https://app.prolific.com/","en-US,en;q=0.9","6595ddebdbc6d36b1ef5462a","67949641171f97c04e14fb34","67951463b64fec483e23d92c","","null","<img id='swapped'  src='G_6.jpg' height='90'> <img id='swapped'  src='G_5.jpg' height='90'> <img   src='G_8.jpg' height='90'> <img src='G_1.jpg' height='90'> <img src='G_2.jpg' height='90'> <img src='G_4.jpg' height='90'> <img src='G_3.jpg' height='90'> <img src='G_7.jpg' height='90'>","null","Animation1",""
"","","","","","html-keyboard-response","102","376859","0.0-58.0","37","1","2025-01-25 16:42:24","af8d355d56820e421d246a7037deb6e6","174.74.179.46","Mozilla/5.0 (Windows NT 10.0; Win64; x64) AppleWebKit/537.36 (KHTML, like Gecko) Chrome/131.0.0.0 Safari/537.36","WebKit","Chrome","131.0.0.0","Windows","10.0","https://app.prolific.com/","en-US,en;q=0.9","6595ddebdbc6d36b1ef5462a","67949641171f97c04e14fb34","67951463b64fec483e23d92c","","null","<img   src='G_6.jpg' height='90'> <img   src='G_5.jpg' height='90'> <img   src='G_8.jpg' height='90'> <img src='G_1.jpg' height='90'> <img src='G_2.jpg' height='90'> <img src='G_4.jpg' height='90'> <img src='G_3.jpg' height='90'> <img src='G_7.jpg' height='90'>","null","Animation1",""
"","","","","","html-keyboard-response","103","377369","0.0-59.0","37","1","2025-01-25 16:42:24","af8d355d56820e421d246a7037deb6e6","174.74.179.46","Mozilla/5.0 (Windows NT 10.0; Win64; x64) AppleWebKit/537.36 (KHTML, like Gecko) Chrome/131.0.0.0 Safari/537.36","WebKit","Chrome","131.0.0.0","Windows","10.0","https://app.prolific.com/","en-US,en;q=0.9","6595ddebdbc6d36b1ef5462a","67949641171f97c04e14fb34","67951463b64fec483e23d92c","","null","<img   src='G_6.jpg' height='90'> <img   src='G_5.jpg' height='90'> <img id='selected'   src='G_8.jpg' height='90'> <img src='G_1.jpg' height='90'> <img src='G_2.jpg' height='90'> <img src='G_4.jpg' height='90'> <img src='G_3.jpg' height='90'> <img src='G_7.jpg' height='90'>","null","Animation1",""
"","","","","","html-keyboard-response","104","377889","0.0-60.0","37","1","2025-01-25 16:42:24","af8d355d56820e421d246a7037deb6e6","174.74.179.46","Mozilla/5.0 (Windows NT 10.0; Win64; x64) AppleWebKit/537.36 (KHTML, like Gecko) Chrome/131.0.0.0 Safari/537.36","WebKit","Chrome","131.0.0.0","Windows","10.0","https://app.prolific.com/","en-US,en;q=0.9","6595ddebdbc6d36b1ef5462a","67949641171f97c04e14fb34","67951463b64fec483e23d92c","","null","<img   src='G_6.jpg' height='90'> <img   src='G_5.jpg' height='90'> <img id='selected'   src='G_8.jpg' height='90'> <img id='selected' src='G_1.jpg' height='90'> <img src='G_2.jpg' height='90'> <img src='G_4.jpg' height='90'> <img src='G_3.jpg' height='90'> <img src='G_7.jpg' height='90'>","null","Animation1",""
"","","","","","html-keyboard-response","105","378401","0.0-61.0","37","1","2025-01-25 16:42:24","af8d355d56820e421d246a7037deb6e6","174.74.179.46","Mozilla/5.0 (Windows NT 10.0; Win64; x64) AppleWebKit/537.36 (KHTML, like Gecko) Chrome/131.0.0.0 Safari/537.36","WebKit","Chrome","131.0.0.0","Windows","10.0","https://app.prolific.com/","en-US,en;q=0.9","6595ddebdbc6d36b1ef5462a","67949641171f97c04e14fb34","67951463b64fec483e23d92c","","null","<img   src='G_6.jpg' height='90'> <img   src='G_5.jpg' height='90'> <img id='swapped' src='G_1.jpg' height='90'> <img id='swapped'   src='G_8.jpg' height='90'> <img src='G_2.jpg' height='90'> <img src='G_4.jpg' height='90'> <img src='G_3.jpg' height='90'> <img src='G_7.jpg' height='90'>","null","Animation1",""
"","","","","","html-keyboard-response","106","378717","0.0-62.0","37","1","2025-01-25 16:42:24","af8d355d56820e421d246a7037deb6e6","174.74.179.46","Mozilla/5.0 (Windows NT 10.0; Win64; x64) AppleWebKit/537.36 (KHTML, like Gecko) Chrome/131.0.0.0 Safari/537.36","WebKit","Chrome","131.0.0.0","Windows","10.0","https://app.prolific.com/","en-US,en;q=0.9","6595ddebdbc6d36b1ef5462a","67949641171f97c04e14fb34","67951463b64fec483e23d92c","","null","<img   src='G_6.jpg' height='90'> <img   src='G_5.jpg' height='90'> <img  src='G_1.jpg' height='90'> <img    src='G_8.jpg' height='90'> <img src='G_2.jpg' height='90'> <img src='G_4.jpg' height='90'> <img src='G_3.jpg' height='90'> <img src='G_7.jpg' height='90'>","null","Animation1",""
"","","","","","html-keyboard-response","107","379224","0.0-63.0","37","1","2025-01-25 16:42:24","af8d355d56820e421d246a7037deb6e6","174.74.179.46","Mozilla/5.0 (Windows NT 10.0; Win64; x64) AppleWebKit/537.36 (KHTML, like Gecko) Chrome/131.0.0.0 Safari/537.36","WebKit","Chrome","131.0.0.0","Windows","10.0","https://app.prolific.com/","en-US,en;q=0.9","6595ddebdbc6d36b1ef5462a","67949641171f97c04e14fb34","67951463b64fec483e23d92c","","null","<img   src='G_6.jpg' height='90'> <img id='selected'   src='G_5.jpg' height='90'> <img  src='G_1.jpg' height='90'> <img    src='G_8.jpg' height='90'> <img src='G_2.jpg' height='90'> <img src='G_4.jpg' height='90'> <img src='G_3.jpg' height='90'> <img src='G_7.jpg' height='90'>","null","Animation1",""
"","","","","","html-keyboard-response","108","379730","0.0-64.0","37","1","2025-01-25 16:42:24","af8d355d56820e421d246a7037deb6e6","174.74.179.46","Mozilla/5.0 (Windows NT 10.0; Win64; x64) AppleWebKit/537.36 (KHTML, like Gecko) Chrome/131.0.0.0 Safari/537.36","WebKit","Chrome","131.0.0.0","Windows","10.0","https://app.prolific.com/","en-US,en;q=0.9","6595ddebdbc6d36b1ef5462a","67949641171f97c04e14fb34","67951463b64fec483e23d92c","","null","<img   src='G_6.jpg' height='90'> <img id='selected'   src='G_5.jpg' height='90'> <img id='selected'  src='G_1.jpg' height='90'> <img    src='G_8.jpg' height='90'> <img src='G_2.jpg' height='90'> <img src='G_4.jpg' height='90'> <img src='G_3.jpg' height='90'> <img src='G_7.jpg' height='90'>","null","Animation1",""
"","","","","","html-keyboard-response","109","380240","0.0-65.0","37","1","2025-01-25 16:42:24","af8d355d56820e421d246a7037deb6e6","174.74.179.46","Mozilla/5.0 (Windows NT 10.0; Win64; x64) AppleWebKit/537.36 (KHTML, like Gecko) Chrome/131.0.0.0 Safari/537.36","WebKit","Chrome","131.0.0.0","Windows","10.0","https://app.prolific.com/","en-US,en;q=0.9","6595ddebdbc6d36b1ef5462a","67949641171f97c04e14fb34","67951463b64fec483e23d92c","","null","<img   src='G_6.jpg' height='90'> <img id='swapped'  src='G_1.jpg' height='90'> <img id='swapped'   src='G_5.jpg' height='90'> <img    src='G_8.jpg' height='90'> <img src='G_2.jpg' height='90'> <img src='G_4.jpg' height='90'> <img src='G_3.jpg' height='90'> <img src='G_7.jpg' height='90'>","null","Animation1",""
"","","","","","html-keyboard-response","110","380558","0.0-66.0","37","1","2025-01-25 16:42:24","af8d355d56820e421d246a7037deb6e6","174.74.179.46","Mozilla/5.0 (Windows NT 10.0; Win64; x64) AppleWebKit/537.36 (KHTML, like Gecko) Chrome/131.0.0.0 Safari/537.36","WebKit","Chrome","131.0.0.0","Windows","10.0","https://app.prolific.com/","en-US,en;q=0.9","6595ddebdbc6d36b1ef5462a","67949641171f97c04e14fb34","67951463b64fec483e23d92c","","null","<img   src='G_6.jpg' height='90'> <img   src='G_1.jpg' height='90'> <img    src='G_5.jpg' height='90'> <img    src='G_8.jpg' height='90'> <img src='G_2.jpg' height='90'> <img src='G_4.jpg' height='90'> <img src='G_3.jpg' height='90'> <img src='G_7.jpg' height='90'>","null","Animation1",""
"","","","","","html-keyboard-response","111","381067","0.0-67.0","37","1","2025-01-25 16:42:24","af8d355d56820e421d246a7037deb6e6","174.74.179.46","Mozilla/5.0 (Windows NT 10.0; Win64; x64) AppleWebKit/537.36 (KHTML, like Gecko) Chrome/131.0.0.0 Safari/537.36","WebKit","Chrome","131.0.0.0","Windows","10.0","https://app.prolific.com/","en-US,en;q=0.9","6595ddebdbc6d36b1ef5462a","67949641171f97c04e14fb34","67951463b64fec483e23d92c","","null","<img id='selected'   src='G_6.jpg' height='90'> <img   src='G_1.jpg' height='90'> <img    src='G_5.jpg' height='90'> <img    src='G_8.jpg' height='90'> <img src='G_2.jpg' height='90'> <img src='G_4.jpg' height='90'> <img src='G_3.jpg' height='90'> <img src='G_7.jpg' height='90'>","null","Animation1",""
"","","","","","html-keyboard-response","112","381583","0.0-68.0","37","1","2025-01-25 16:42:24","af8d355d56820e421d246a7037deb6e6","174.74.179.46","Mozilla/5.0 (Windows NT 10.0; Win64; x64) AppleWebKit/537.36 (KHTML, like Gecko) Chrome/131.0.0.0 Safari/537.36","WebKit","Chrome","131.0.0.0","Windows","10.0","https://app.prolific.com/","en-US,en;q=0.9","6595ddebdbc6d36b1ef5462a","67949641171f97c04e14fb34","67951463b64fec483e23d92c","","null","<img id='selected'   src='G_6.jpg' height='90'> <img id='selected'   src='G_1.jpg' height='90'> <img    src='G_5.jpg' height='90'> <img    src='G_8.jpg' height='90'> <img src='G_2.jpg' height='90'> <img src='G_4.jpg' height='90'> <img src='G_3.jpg' height='90'> <img src='G_7.jpg' height='90'>","null","Animation1",""
"","","","","","html-keyboard-response","113","382104","0.0-69.0","37","1","2025-01-25 16:42:24","af8d355d56820e421d246a7037deb6e6","174.74.179.46","Mozilla/5.0 (Windows NT 10.0; Win64; x64) AppleWebKit/537.36 (KHTML, like Gecko) Chrome/131.0.0.0 Safari/537.36","WebKit","Chrome","131.0.0.0","Windows","10.0","https://app.prolific.com/","en-US,en;q=0.9","6595ddebdbc6d36b1ef5462a","67949641171f97c04e14fb34","67951463b64fec483e23d92c","","null","<img id='swapped'   src='G_1.jpg' height='90'> <img id='swapped'   src='G_6.jpg' height='90'> <img    src='G_5.jpg' height='90'> <img    src='G_8.jpg' height='90'> <img src='G_2.jpg' height='90'> <img src='G_4.jpg' height='90'> <img src='G_3.jpg' height='90'> <img src='G_7.jpg' height='90'>","null","Animation1",""
"","","","","","html-keyboard-response","114","382409","0.0-70.0","37","1","2025-01-25 16:42:24","af8d355d56820e421d246a7037deb6e6","174.74.179.46","Mozilla/5.0 (Windows NT 10.0; Win64; x64) AppleWebKit/537.36 (KHTML, like Gecko) Chrome/131.0.0.0 Safari/537.36","WebKit","Chrome","131.0.0.0","Windows","10.0","https://app.prolific.com/","en-US,en;q=0.9","6595ddebdbc6d36b1ef5462a","67949641171f97c04e14fb34","67951463b64fec483e23d92c","","null","<img    src='G_1.jpg' height='90'> <img    src='G_6.jpg' height='90'> <img    src='G_5.jpg' height='90'> <img    src='G_8.jpg' height='90'> <img src='G_2.jpg' height='90'> <img src='G_4.jpg' height='90'> <img src='G_3.jpg' height='90'> <img src='G_7.jpg' height='90'>","null","Animation1",""
"","","","","","html-keyboard-response","115","382919","0.0-71.0","37","1","2025-01-25 16:42:24","af8d355d56820e421d246a7037deb6e6","174.74.179.46","Mozilla/5.0 (Windows NT 10.0; Win64; x64) AppleWebKit/537.36 (KHTML, like Gecko) Chrome/131.0.0.0 Safari/537.36","WebKit","Chrome","131.0.0.0","Windows","10.0","https://app.prolific.com/","en-US,en;q=0.9","6595ddebdbc6d36b1ef5462a","67949641171f97c04e14fb34","67951463b64fec483e23d92c","","null","<img    src='G_1.jpg' height='90'> <img    src='G_6.jpg' height='90'> <img    src='G_5.jpg' height='90'> <img id='selected'    src='G_8.jpg' height='90'> <img src='G_2.jpg' height='90'> <img src='G_4.jpg' height='90'> <img src='G_3.jpg' height='90'> <img src='G_7.jpg' height='90'>","null","Animation1",""
"","","","","","html-keyboard-response","116","383434","0.0-72.0","37","1","2025-01-25 16:42:24","af8d355d56820e421d246a7037deb6e6","174.74.179.46","Mozilla/5.0 (Windows NT 10.0; Win64; x64) AppleWebKit/537.36 (KHTML, like Gecko) Chrome/131.0.0.0 Safari/537.36","WebKit","Chrome","131.0.0.0","Windows","10.0","https://app.prolific.com/","en-US,en;q=0.9","6595ddebdbc6d36b1ef5462a","67949641171f97c04e14fb34","67951463b64fec483e23d92c","","null","<img    src='G_1.jpg' height='90'> <img    src='G_6.jpg' height='90'> <img    src='G_5.jpg' height='90'> <img id='selected'    src='G_8.jpg' height='90'> <img id='selected' src='G_2.jpg' height='90'> <img src='G_4.jpg' height='90'> <img src='G_3.jpg' height='90'> <img src='G_7.jpg' height='90'>","null","Animation1",""
"","","","","","html-keyboard-response","117","383940","0.0-73.0","37","1","2025-01-25 16:42:24","af8d355d56820e421d246a7037deb6e6","174.74.179.46","Mozilla/5.0 (Windows NT 10.0; Win64; x64) AppleWebKit/537.36 (KHTML, like Gecko) Chrome/131.0.0.0 Safari/537.36","WebKit","Chrome","131.0.0.0","Windows","10.0","https://app.prolific.com/","en-US,en;q=0.9","6595ddebdbc6d36b1ef5462a","67949641171f97c04e14fb34","67951463b64fec483e23d92c","","null","<img    src='G_1.jpg' height='90'> <img    src='G_6.jpg' height='90'> <img    src='G_5.jpg' height='90'> <img id='swapped' src='G_2.jpg' height='90'> <img id='swapped'    src='G_8.jpg' height='90'> <img src='G_4.jpg' height='90'> <img src='G_3.jpg' height='90'> <img src='G_7.jpg' height='90'>","null","Animation1",""
"","","","","","html-keyboard-response","118","384259","0.0-74.0","37","1","2025-01-25 16:42:24","af8d355d56820e421d246a7037deb6e6","174.74.179.46","Mozilla/5.0 (Windows NT 10.0; Win64; x64) AppleWebKit/537.36 (KHTML, like Gecko) Chrome/131.0.0.0 Safari/537.36","WebKit","Chrome","131.0.0.0","Windows","10.0","https://app.prolific.com/","en-US,en;q=0.9","6595ddebdbc6d36b1ef5462a","67949641171f97c04e14fb34","67951463b64fec483e23d92c","","null","<img    src='G_1.jpg' height='90'> <img    src='G_6.jpg' height='90'> <img    src='G_5.jpg' height='90'> <img  src='G_2.jpg' height='90'> <img     src='G_8.jpg' height='90'> <img src='G_4.jpg' height='90'> <img src='G_3.jpg' height='90'> <img src='G_7.jpg' height='90'>","null","Animation1",""
"","","","","","html-keyboard-response","119","384777","0.0-75.0","37","1","2025-01-25 16:42:24","af8d355d56820e421d246a7037deb6e6","174.74.179.46","Mozilla/5.0 (Windows NT 10.0; Win64; x64) AppleWebKit/537.36 (KHTML, like Gecko) Chrome/131.0.0.0 Safari/537.36","WebKit","Chrome","131.0.0.0","Windows","10.0","https://app.prolific.com/","en-US,en;q=0.9","6595ddebdbc6d36b1ef5462a","67949641171f97c04e14fb34","67951463b64fec483e23d92c","","null","<img    src='G_1.jpg' height='90'> <img    src='G_6.jpg' height='90'> <img id='selected'    src='G_5.jpg' height='90'> <img  src='G_2.jpg' height='90'> <img     src='G_8.jpg' height='90'> <img src='G_4.jpg' height='90'> <img src='G_3.jpg' height='90'> <img src='G_7.jpg' height='90'>","null","Animation1",""
"","","","","","html-keyboard-response","120","385290","0.0-76.0","37","1","2025-01-25 16:42:24","af8d355d56820e421d246a7037deb6e6","174.74.179.46","Mozilla/5.0 (Windows NT 10.0; Win64; x64) AppleWebKit/537.36 (KHTML, like Gecko) Chrome/131.0.0.0 Safari/537.36","WebKit","Chrome","131.0.0.0","Windows","10.0","https://app.prolific.com/","en-US,en;q=0.9","6595ddebdbc6d36b1ef5462a","67949641171f97c04e14fb34","67951463b64fec483e23d92c","","null","<img    src='G_1.jpg' height='90'> <img    src='G_6.jpg' height='90'> <img id='selected'    src='G_5.jpg' height='90'> <img id='selected'  src='G_2.jpg' height='90'> <img     src='G_8.jpg' height='90'> <img src='G_4.jpg' height='90'> <img src='G_3.jpg' height='90'> <img src='G_7.jpg' height='90'>","null","Animation1",""
"","","","","","html-keyboard-response","121","385799","0.0-77.0","37","1","2025-01-25 16:42:24","af8d355d56820e421d246a7037deb6e6","174.74.179.46","Mozilla/5.0 (Windows NT 10.0; Win64; x64) AppleWebKit/537.36 (KHTML, like Gecko) Chrome/131.0.0.0 Safari/537.36","WebKit","Chrome","131.0.0.0","Windows","10.0","https://app.prolific.com/","en-US,en;q=0.9","6595ddebdbc6d36b1ef5462a","67949641171f97c04e14fb34","67951463b64fec483e23d92c","","null","<img    src='G_1.jpg' height='90'> <img    src='G_6.jpg' height='90'> <img id='swapped'  src='G_2.jpg' height='90'> <img id='swapped'    src='G_5.jpg' height='90'> <img     src='G_8.jpg' height='90'> <img src='G_4.jpg' height='90'> <img src='G_3.jpg' height='90'> <img src='G_7.jpg' height='90'>","null","Animation1",""
"","","","","","html-keyboard-response","122","386112","0.0-78.0","37","1","2025-01-25 16:42:24","af8d355d56820e421d246a7037deb6e6","174.74.179.46","Mozilla/5.0 (Windows NT 10.0; Win64; x64) AppleWebKit/537.36 (KHTML, like Gecko) Chrome/131.0.0.0 Safari/537.36","WebKit","Chrome","131.0.0.0","Windows","10.0","https://app.prolific.com/","en-US,en;q=0.9","6595ddebdbc6d36b1ef5462a","67949641171f97c04e14fb34","67951463b64fec483e23d92c","","null","<img    src='G_1.jpg' height='90'> <img    src='G_6.jpg' height='90'> <img   src='G_2.jpg' height='90'> <img     src='G_5.jpg' height='90'> <img     src='G_8.jpg' height='90'> <img src='G_4.jpg' height='90'> <img src='G_3.jpg' height='90'> <img src='G_7.jpg' height='90'>","null","Animation1",""
"","","","","","html-keyboard-response","123","386620","0.0-79.0","37","1","2025-01-25 16:42:24","af8d355d56820e421d246a7037deb6e6","174.74.179.46","Mozilla/5.0 (Windows NT 10.0; Win64; x64) AppleWebKit/537.36 (KHTML, like Gecko) Chrome/131.0.0.0 Safari/537.36","WebKit","Chrome","131.0.0.0","Windows","10.0","https://app.prolific.com/","en-US,en;q=0.9","6595ddebdbc6d36b1ef5462a","67949641171f97c04e14fb34","67951463b64fec483e23d92c","","null","<img    src='G_1.jpg' height='90'> <img id='selected'    src='G_6.jpg' height='90'> <img   src='G_2.jpg' height='90'> <img     src='G_5.jpg' height='90'> <img     src='G_8.jpg' height='90'> <img src='G_4.jpg' height='90'> <img src='G_3.jpg' height='90'> <img src='G_7.jpg' height='90'>","null","Animation1",""
"","","","","","html-keyboard-response","124","387137","0.0-80.0","37","1","2025-01-25 16:42:24","af8d355d56820e421d246a7037deb6e6","174.74.179.46","Mozilla/5.0 (Windows NT 10.0; Win64; x64) AppleWebKit/537.36 (KHTML, like Gecko) Chrome/131.0.0.0 Safari/537.36","WebKit","Chrome","131.0.0.0","Windows","10.0","https://app.prolific.com/","en-US,en;q=0.9","6595ddebdbc6d36b1ef5462a","67949641171f97c04e14fb34","67951463b64fec483e23d92c","","null","<img    src='G_1.jpg' height='90'> <img id='selected'    src='G_6.jpg' height='90'> <img id='selected'   src='G_2.jpg' height='90'> <img     src='G_5.jpg' height='90'> <img     src='G_8.jpg' height='90'> <img src='G_4.jpg' height='90'> <img src='G_3.jpg' height='90'> <img src='G_7.jpg' height='90'>","null","Animation1",""
"","","","","","html-keyboard-response","125","387655","0.0-81.0","37","1","2025-01-25 16:42:24","af8d355d56820e421d246a7037deb6e6","174.74.179.46","Mozilla/5.0 (Windows NT 10.0; Win64; x64) AppleWebKit/537.36 (KHTML, like Gecko) Chrome/131.0.0.0 Safari/537.36","WebKit","Chrome","131.0.0.0","Windows","10.0","https://app.prolific.com/","en-US,en;q=0.9","6595ddebdbc6d36b1ef5462a","67949641171f97c04e14fb34","67951463b64fec483e23d92c","","null","<img    src='G_1.jpg' height='90'> <img id='swapped'   src='G_2.jpg' height='90'> <img id='swapped'    src='G_6.jpg' height='90'> <img     src='G_5.jpg' height='90'> <img     src='G_8.jpg' height='90'> <img src='G_4.jpg' height='90'> <img src='G_3.jpg' height='90'> <img src='G_7.jpg' height='90'>","null","Animation1",""
"","","","","","html-keyboard-response","126","387975","0.0-82.0","37","1","2025-01-25 16:42:24","af8d355d56820e421d246a7037deb6e6","174.74.179.46","Mozilla/5.0 (Windows NT 10.0; Win64; x64) AppleWebKit/537.36 (KHTML, like Gecko) Chrome/131.0.0.0 Safari/537.36","WebKit","Chrome","131.0.0.0","Windows","10.0","https://app.prolific.com/","en-US,en;q=0.9","6595ddebdbc6d36b1ef5462a","67949641171f97c04e14fb34","67951463b64fec483e23d92c","","null","<img    src='G_1.jpg' height='90'> <img    src='G_2.jpg' height='90'> <img     src='G_6.jpg' height='90'> <img     src='G_5.jpg' height='90'> <img     src='G_8.jpg' height='90'> <img src='G_4.jpg' height='90'> <img src='G_3.jpg' height='90'> <img src='G_7.jpg' height='90'>","null","Animation1",""
"","","","","","html-keyboard-response","127","388485","0.0-83.0","37","1","2025-01-25 16:42:24","af8d355d56820e421d246a7037deb6e6","174.74.179.46","Mozilla/5.0 (Windows NT 10.0; Win64; x64) AppleWebKit/537.36 (KHTML, like Gecko) Chrome/131.0.0.0 Safari/537.36","WebKit","Chrome","131.0.0.0","Windows","10.0","https://app.prolific.com/","en-US,en;q=0.9","6595ddebdbc6d36b1ef5462a","67949641171f97c04e14fb34","67951463b64fec483e23d92c","","null","<img id='selected'    src='G_1.jpg' height='90'> <img    src='G_2.jpg' height='90'> <img     src='G_6.jpg' height='90'> <img     src='G_5.jpg' height='90'> <img     src='G_8.jpg' height='90'> <img src='G_4.jpg' height='90'> <img src='G_3.jpg' height='90'> <img src='G_7.jpg' height='90'>","null","Animation1",""
"","","","","","html-keyboard-response","128","388994","0.0-84.0","37","1","2025-01-25 16:42:24","af8d355d56820e421d246a7037deb6e6","174.74.179.46","Mozilla/5.0 (Windows NT 10.0; Win64; x64) AppleWebKit/537.36 (KHTML, like Gecko) Chrome/131.0.0.0 Safari/537.36","WebKit","Chrome","131.0.0.0","Windows","10.0","https://app.prolific.com/","en-US,en;q=0.9","6595ddebdbc6d36b1ef5462a","67949641171f97c04e14fb34","67951463b64fec483e23d92c","","null","<img id='selected'    src='G_1.jpg' height='90'> <img id='selected'    src='G_2.jpg' height='90'> <img     src='G_6.jpg' height='90'> <img     src='G_5.jpg' height='90'> <img     src='G_8.jpg' height='90'> <img src='G_4.jpg' height='90'> <img src='G_3.jpg' height='90'> <img src='G_7.jpg' height='90'>","null","Animation1",""
"","","","","","html-keyboard-response","129","389506","0.0-85.0","37","1","2025-01-25 16:42:24","af8d355d56820e421d246a7037deb6e6","174.74.179.46","Mozilla/5.0 (Windows NT 10.0; Win64; x64) AppleWebKit/537.36 (KHTML, like Gecko) Chrome/131.0.0.0 Safari/537.36","WebKit","Chrome","131.0.0.0","Windows","10.0","https://app.prolific.com/","en-US,en;q=0.9","6595ddebdbc6d36b1ef5462a","67949641171f97c04e14fb34","67951463b64fec483e23d92c","","null","<img id='selected'    src='G_1.jpg' height='90'> <img id='selected'    src='G_2.jpg' height='90'> <img     src='G_6.jpg' height='90'> <img     src='G_5.jpg' height='90'> <img     src='G_8.jpg' height='90'> <img src='G_4.jpg' height='90'> <img src='G_3.jpg' height='90'> <img src='G_7.jpg' height='90'>","null","Animation1",""
"","","","","","html-keyboard-response","130","389811","0.0-86.0","37","1","2025-01-25 16:42:24","af8d355d56820e421d246a7037deb6e6","174.74.179.46","Mozilla/5.0 (Windows NT 10.0; Win64; x64) AppleWebKit/537.36 (KHTML, like Gecko) Chrome/131.0.0.0 Safari/537.36","WebKit","Chrome","131.0.0.0","Windows","10.0","https://app.prolific.com/","en-US,en;q=0.9","6595ddebdbc6d36b1ef5462a","67949641171f97c04e14fb34","67951463b64fec483e23d92c","","null","<img     src='G_1.jpg' height='90'> <img     src='G_2.jpg' height='90'> <img     src='G_6.jpg' height='90'> <img     src='G_5.jpg' height='90'> <img     src='G_8.jpg' height='90'> <img src='G_4.jpg' height='90'> <img src='G_3.jpg' height='90'> <img src='G_7.jpg' height='90'>","null","Animation1",""
"","","","","","html-keyboard-response","131","390319","0.0-87.0","37","1","2025-01-25 16:42:24","af8d355d56820e421d246a7037deb6e6","174.74.179.46","Mozilla/5.0 (Windows NT 10.0; Win64; x64) AppleWebKit/537.36 (KHTML, like Gecko) Chrome/131.0.0.0 Safari/537.36","WebKit","Chrome","131.0.0.0","Windows","10.0","https://app.prolific.com/","en-US,en;q=0.9","6595ddebdbc6d36b1ef5462a","67949641171f97c04e14fb34","67951463b64fec483e23d92c","","null","<img     src='G_1.jpg' height='90'> <img     src='G_2.jpg' height='90'> <img     src='G_6.jpg' height='90'> <img     src='G_5.jpg' height='90'> <img id='selected'     src='G_8.jpg' height='90'> <img src='G_4.jpg' height='90'> <img src='G_3.jpg' height='90'> <img src='G_7.jpg' height='90'>","null","Animation1",""
"","","","","","html-keyboard-response","132","390828","0.0-88.0","37","1","2025-01-25 16:42:24","af8d355d56820e421d246a7037deb6e6","174.74.179.46","Mozilla/5.0 (Windows NT 10.0; Win64; x64) AppleWebKit/537.36 (KHTML, like Gecko) Chrome/131.0.0.0 Safari/537.36","WebKit","Chrome","131.0.0.0","Windows","10.0","https://app.prolific.com/","en-US,en;q=0.9","6595ddebdbc6d36b1ef5462a","67949641171f97c04e14fb34","67951463b64fec483e23d92c","","null","<img     src='G_1.jpg' height='90'> <img     src='G_2.jpg' height='90'> <img     src='G_6.jpg' height='90'> <img     src='G_5.jpg' height='90'> <img id='selected'     src='G_8.jpg' height='90'> <img id='selected' src='G_4.jpg' height='90'> <img src='G_3.jpg' height='90'> <img src='G_7.jpg' height='90'>","null","Animation1",""
"","","","","","html-keyboard-response","133","391339","0.0-89.0","37","1","2025-01-25 16:42:24","af8d355d56820e421d246a7037deb6e6","174.74.179.46","Mozilla/5.0 (Windows NT 10.0; Win64; x64) AppleWebKit/537.36 (KHTML, like Gecko) Chrome/131.0.0.0 Safari/537.36","WebKit","Chrome","131.0.0.0","Windows","10.0","https://app.prolific.com/","en-US,en;q=0.9","6595ddebdbc6d36b1ef5462a","67949641171f97c04e14fb34","67951463b64fec483e23d92c","","null","<img     src='G_1.jpg' height='90'> <img     src='G_2.jpg' height='90'> <img     src='G_6.jpg' height='90'> <img     src='G_5.jpg' height='90'> <img id='swapped' src='G_4.jpg' height='90'> <img id='swapped'     src='G_8.jpg' height='90'> <img src='G_3.jpg' height='90'> <img src='G_7.jpg' height='90'>","null","Animation1",""
"","","","","","html-keyboard-response","134","391648","0.0-90.0","37","1","2025-01-25 16:42:24","af8d355d56820e421d246a7037deb6e6","174.74.179.46","Mozilla/5.0 (Windows NT 10.0; Win64; x64) AppleWebKit/537.36 (KHTML, like Gecko) Chrome/131.0.0.0 Safari/537.36","WebKit","Chrome","131.0.0.0","Windows","10.0","https://app.prolific.com/","en-US,en;q=0.9","6595ddebdbc6d36b1ef5462a","67949641171f97c04e14fb34","67951463b64fec483e23d92c","","null","<img     src='G_1.jpg' height='90'> <img     src='G_2.jpg' height='90'> <img     src='G_6.jpg' height='90'> <img     src='G_5.jpg' height='90'> <img  src='G_4.jpg' height='90'> <img      src='G_8.jpg' height='90'> <img src='G_3.jpg' height='90'> <img src='G_7.jpg' height='90'>","null","Animation1",""
"","","","","","html-keyboard-response","135","392157","0.0-91.0","37","1","2025-01-25 16:42:24","af8d355d56820e421d246a7037deb6e6","174.74.179.46","Mozilla/5.0 (Windows NT 10.0; Win64; x64) AppleWebKit/537.36 (KHTML, like Gecko) Chrome/131.0.0.0 Safari/537.36","WebKit","Chrome","131.0.0.0","Windows","10.0","https://app.prolific.com/","en-US,en;q=0.9","6595ddebdbc6d36b1ef5462a","67949641171f97c04e14fb34","67951463b64fec483e23d92c","","null","<img     src='G_1.jpg' height='90'> <img     src='G_2.jpg' height='90'> <img     src='G_6.jpg' height='90'> <img id='selected'     src='G_5.jpg' height='90'> <img  src='G_4.jpg' height='90'> <img      src='G_8.jpg' height='90'> <img src='G_3.jpg' height='90'> <img src='G_7.jpg' height='90'>","null","Animation1",""
"","","","","","html-keyboard-response","136","392666","0.0-92.0","37","1","2025-01-25 16:42:24","af8d355d56820e421d246a7037deb6e6","174.74.179.46","Mozilla/5.0 (Windows NT 10.0; Win64; x64) AppleWebKit/537.36 (KHTML, like Gecko) Chrome/131.0.0.0 Safari/537.36","WebKit","Chrome","131.0.0.0","Windows","10.0","https://app.prolific.com/","en-US,en;q=0.9","6595ddebdbc6d36b1ef5462a","67949641171f97c04e14fb34","67951463b64fec483e23d92c","","null","<img     src='G_1.jpg' height='90'> <img     src='G_2.jpg' height='90'> <img     src='G_6.jpg' height='90'> <img id='selected'     src='G_5.jpg' height='90'> <img id='selected'  src='G_4.jpg' height='90'> <img      src='G_8.jpg' height='90'> <img src='G_3.jpg' height='90'> <img src='G_7.jpg' height='90'>","null","Animation1",""
"","","","","","html-keyboard-response","137","393177","0.0-93.0","37","1","2025-01-25 16:42:24","af8d355d56820e421d246a7037deb6e6","174.74.179.46","Mozilla/5.0 (Windows NT 10.0; Win64; x64) AppleWebKit/537.36 (KHTML, like Gecko) Chrome/131.0.0.0 Safari/537.36","WebKit","Chrome","131.0.0.0","Windows","10.0","https://app.prolific.com/","en-US,en;q=0.9","6595ddebdbc6d36b1ef5462a","67949641171f97c04e14fb34","67951463b64fec483e23d92c","","null","<img     src='G_1.jpg' height='90'> <img     src='G_2.jpg' height='90'> <img     src='G_6.jpg' height='90'> <img id='selected'     src='G_5.jpg' height='90'> <img id='selected'  src='G_4.jpg' height='90'> <img      src='G_8.jpg' height='90'> <img src='G_3.jpg' height='90'> <img src='G_7.jpg' height='90'>","null","Animation1",""
"","","","","","html-keyboard-response","138","393496","0.0-94.0","37","1","2025-01-25 16:42:24","af8d355d56820e421d246a7037deb6e6","174.74.179.46","Mozilla/5.0 (Windows NT 10.0; Win64; x64) AppleWebKit/537.36 (KHTML, like Gecko) Chrome/131.0.0.0 Safari/537.36","WebKit","Chrome","131.0.0.0","Windows","10.0","https://app.prolific.com/","en-US,en;q=0.9","6595ddebdbc6d36b1ef5462a","67949641171f97c04e14fb34","67951463b64fec483e23d92c","","null","<img     src='G_1.jpg' height='90'> <img     src='G_2.jpg' height='90'> <img     src='G_6.jpg' height='90'> <img      src='G_5.jpg' height='90'> <img   src='G_4.jpg' height='90'> <img      src='G_8.jpg' height='90'> <img src='G_3.jpg' height='90'> <img src='G_7.jpg' height='90'>","null","Animation1",""
"","","","","","html-keyboard-response","139","394007","0.0-95.0","37","1","2025-01-25 16:42:24","af8d355d56820e421d246a7037deb6e6","174.74.179.46","Mozilla/5.0 (Windows NT 10.0; Win64; x64) AppleWebKit/537.36 (KHTML, like Gecko) Chrome/131.0.0.0 Safari/537.36","WebKit","Chrome","131.0.0.0","Windows","10.0","https://app.prolific.com/","en-US,en;q=0.9","6595ddebdbc6d36b1ef5462a","67949641171f97c04e14fb34","67951463b64fec483e23d92c","","null","<img     src='G_1.jpg' height='90'> <img     src='G_2.jpg' height='90'> <img     src='G_6.jpg' height='90'> <img      src='G_5.jpg' height='90'> <img   src='G_4.jpg' height='90'> <img id='selected'      src='G_8.jpg' height='90'> <img src='G_3.jpg' height='90'> <img src='G_7.jpg' height='90'>","null","Animation1",""
"","","","","","html-keyboard-response","140","394522","0.0-96.0","37","1","2025-01-25 16:42:24","af8d355d56820e421d246a7037deb6e6","174.74.179.46","Mozilla/5.0 (Windows NT 10.0; Win64; x64) AppleWebKit/537.36 (KHTML, like Gecko) Chrome/131.0.0.0 Safari/537.36","WebKit","Chrome","131.0.0.0","Windows","10.0","https://app.prolific.com/","en-US,en;q=0.9","6595ddebdbc6d36b1ef5462a","67949641171f97c04e14fb34","67951463b64fec483e23d92c","","null","<img     src='G_1.jpg' height='90'> <img     src='G_2.jpg' height='90'> <img     src='G_6.jpg' height='90'> <img      src='G_5.jpg' height='90'> <img   src='G_4.jpg' height='90'> <img id='selected'      src='G_8.jpg' height='90'> <img id='selected' src='G_3.jpg' height='90'> <img src='G_7.jpg' height='90'>","null","Animation1",""
"","","","","","html-keyboard-response","141","395039","0.0-97.0","37","1","2025-01-25 16:42:24","af8d355d56820e421d246a7037deb6e6","174.74.179.46","Mozilla/5.0 (Windows NT 10.0; Win64; x64) AppleWebKit/537.36 (KHTML, like Gecko) Chrome/131.0.0.0 Safari/537.36","WebKit","Chrome","131.0.0.0","Windows","10.0","https://app.prolific.com/","en-US,en;q=0.9","6595ddebdbc6d36b1ef5462a","67949641171f97c04e14fb34","67951463b64fec483e23d92c","","null","<img     src='G_1.jpg' height='90'> <img     src='G_2.jpg' height='90'> <img     src='G_6.jpg' height='90'> <img      src='G_5.jpg' height='90'> <img   src='G_4.jpg' height='90'> <img id='selected'      src='G_8.jpg' height='90'> <img id='selected' src='G_3.jpg' height='90'> <img src='G_7.jpg' height='90'>","null","Animation1",""
"","","","","","html-keyboard-response","142","395352","0.0-98.0","37","1","2025-01-25 16:42:24","af8d355d56820e421d246a7037deb6e6","174.74.179.46","Mozilla/5.0 (Windows NT 10.0; Win64; x64) AppleWebKit/537.36 (KHTML, like Gecko) Chrome/131.0.0.0 Safari/537.36","WebKit","Chrome","131.0.0.0","Windows","10.0","https://app.prolific.com/","en-US,en;q=0.9","6595ddebdbc6d36b1ef5462a","67949641171f97c04e14fb34","67951463b64fec483e23d92c","","null","<img     src='G_1.jpg' height='90'> <img     src='G_2.jpg' height='90'> <img     src='G_6.jpg' height='90'> <img      src='G_5.jpg' height='90'> <img   src='G_4.jpg' height='90'> <img       src='G_8.jpg' height='90'> <img  src='G_3.jpg' height='90'> <img src='G_7.jpg' height='90'>","null","Animation1",""
"","","","","","html-keyboard-response","143","395873","0.0-99.0","37","1","2025-01-25 16:42:24","af8d355d56820e421d246a7037deb6e6","174.74.179.46","Mozilla/5.0 (Windows NT 10.0; Win64; x64) AppleWebKit/537.36 (KHTML, like Gecko) Chrome/131.0.0.0 Safari/537.36","WebKit","Chrome","131.0.0.0","Windows","10.0","https://app.prolific.com/","en-US,en;q=0.9","6595ddebdbc6d36b1ef5462a","67949641171f97c04e14fb34","67951463b64fec483e23d92c","","null","<img     src='G_1.jpg' height='90'> <img     src='G_2.jpg' height='90'> <img     src='G_6.jpg' height='90'> <img      src='G_5.jpg' height='90'> <img   src='G_4.jpg' height='90'> <img       src='G_8.jpg' height='90'> <img id='selected'  src='G_3.jpg' height='90'> <img src='G_7.jpg' height='90'>","null","Animation1",""
"","","","","","html-keyboard-response","144","396383","0.0-100.0","37","1","2025-01-25 16:42:24","af8d355d56820e421d246a7037deb6e6","174.74.179.46","Mozilla/5.0 (Windows NT 10.0; Win64; x64) AppleWebKit/537.36 (KHTML, like Gecko) Chrome/131.0.0.0 Safari/537.36","WebKit","Chrome","131.0.0.0","Windows","10.0","https://app.prolific.com/","en-US,en;q=0.9","6595ddebdbc6d36b1ef5462a","67949641171f97c04e14fb34","67951463b64fec483e23d92c","","null","<img     src='G_1.jpg' height='90'> <img     src='G_2.jpg' height='90'> <img     src='G_6.jpg' height='90'> <img      src='G_5.jpg' height='90'> <img   src='G_4.jpg' height='90'> <img       src='G_8.jpg' height='90'> <img id='selected'  src='G_3.jpg' height='90'> <img id='selected' src='G_7.jpg' height='90'>","null","Animation1",""
"","","","","","html-keyboard-response","145","396890","0.0-101.0","37","1","2025-01-25 16:42:24","af8d355d56820e421d246a7037deb6e6","174.74.179.46","Mozilla/5.0 (Windows NT 10.0; Win64; x64) AppleWebKit/537.36 (KHTML, like Gecko) Chrome/131.0.0.0 Safari/537.36","WebKit","Chrome","131.0.0.0","Windows","10.0","https://app.prolific.com/","en-US,en;q=0.9","6595ddebdbc6d36b1ef5462a","67949641171f97c04e14fb34","67951463b64fec483e23d92c","","null","<img     src='G_1.jpg' height='90'> <img     src='G_2.jpg' height='90'> <img     src='G_6.jpg' height='90'> <img      src='G_5.jpg' height='90'> <img   src='G_4.jpg' height='90'> <img       src='G_8.jpg' height='90'> <img id='swapped' src='G_7.jpg' height='90'> <img id='swapped'  src='G_3.jpg' height='90'>","null","Animation1",""
"","","","","","html-keyboard-response","146","397197","0.0-102.0","37","1","2025-01-25 16:42:24","af8d355d56820e421d246a7037deb6e6","174.74.179.46","Mozilla/5.0 (Windows NT 10.0; Win64; x64) AppleWebKit/537.36 (KHTML, like Gecko) Chrome/131.0.0.0 Safari/537.36","WebKit","Chrome","131.0.0.0","Windows","10.0","https://app.prolific.com/","en-US,en;q=0.9","6595ddebdbc6d36b1ef5462a","67949641171f97c04e14fb34","67951463b64fec483e23d92c","","null","<img     src='G_1.jpg' height='90'> <img     src='G_2.jpg' height='90'> <img     src='G_6.jpg' height='90'> <img      src='G_5.jpg' height='90'> <img   src='G_4.jpg' height='90'> <img       src='G_8.jpg' height='90'> <img  src='G_7.jpg' height='90'> <img   src='G_3.jpg' height='90'>","null","Animation1",""
"","","","","","html-keyboard-response","147","397707","0.0-103.0","37","1","2025-01-25 16:42:24","af8d355d56820e421d246a7037deb6e6","174.74.179.46","Mozilla/5.0 (Windows NT 10.0; Win64; x64) AppleWebKit/537.36 (KHTML, like Gecko) Chrome/131.0.0.0 Safari/537.36","WebKit","Chrome","131.0.0.0","Windows","10.0","https://app.prolific.com/","en-US,en;q=0.9","6595ddebdbc6d36b1ef5462a","67949641171f97c04e14fb34","67951463b64fec483e23d92c","","null","<img     src='G_1.jpg' height='90'> <img     src='G_2.jpg' height='90'> <img     src='G_6.jpg' height='90'> <img      src='G_5.jpg' height='90'> <img   src='G_4.jpg' height='90'> <img id='selected'       src='G_8.jpg' height='90'> <img  src='G_7.jpg' height='90'> <img   src='G_3.jpg' height='90'>","null","Animation1",""
"","","","","","html-keyboard-response","148","398216","0.0-104.0","37","1","2025-01-25 16:42:24","af8d355d56820e421d246a7037deb6e6","174.74.179.46","Mozilla/5.0 (Windows NT 10.0; Win64; x64) AppleWebKit/537.36 (KHTML, like Gecko) Chrome/131.0.0.0 Safari/537.36","WebKit","Chrome","131.0.0.0","Windows","10.0","https://app.prolific.com/","en-US,en;q=0.9","6595ddebdbc6d36b1ef5462a","67949641171f97c04e14fb34","67951463b64fec483e23d92c","","null","<img     src='G_1.jpg' height='90'> <img     src='G_2.jpg' height='90'> <img     src='G_6.jpg' height='90'> <img      src='G_5.jpg' height='90'> <img   src='G_4.jpg' height='90'> <img id='selected'       src='G_8.jpg' height='90'> <img id='selected'  src='G_7.jpg' height='90'> <img   src='G_3.jpg' height='90'>","null","Animation1",""
"","","","","","html-keyboard-response","149","398727","0.0-105.0","37","1","2025-01-25 16:42:24","af8d355d56820e421d246a7037deb6e6","174.74.179.46","Mozilla/5.0 (Windows NT 10.0; Win64; x64) AppleWebKit/537.36 (KHTML, like Gecko) Chrome/131.0.0.0 Safari/537.36","WebKit","Chrome","131.0.0.0","Windows","10.0","https://app.prolific.com/","en-US,en;q=0.9","6595ddebdbc6d36b1ef5462a","67949641171f97c04e14fb34","67951463b64fec483e23d92c","","null","<img     src='G_1.jpg' height='90'> <img     src='G_2.jpg' height='90'> <img     src='G_6.jpg' height='90'> <img      src='G_5.jpg' height='90'> <img   src='G_4.jpg' height='90'> <img id='selected'       src='G_8.jpg' height='90'> <img id='selected'  src='G_7.jpg' height='90'> <img   src='G_3.jpg' height='90'>","null","Animation1",""
"","","","","","html-keyboard-response","150","399036","0.0-106.0","37","1","2025-01-25 16:42:24","af8d355d56820e421d246a7037deb6e6","174.74.179.46","Mozilla/5.0 (Windows NT 10.0; Win64; x64) AppleWebKit/537.36 (KHTML, like Gecko) Chrome/131.0.0.0 Safari/537.36","WebKit","Chrome","131.0.0.0","Windows","10.0","https://app.prolific.com/","en-US,en;q=0.9","6595ddebdbc6d36b1ef5462a","67949641171f97c04e14fb34","67951463b64fec483e23d92c","","null","<img     src='G_1.jpg' height='90'> <img     src='G_2.jpg' height='90'> <img     src='G_6.jpg' height='90'> <img      src='G_5.jpg' height='90'> <img   src='G_4.jpg' height='90'> <img        src='G_8.jpg' height='90'> <img   src='G_7.jpg' height='90'> <img   src='G_3.jpg' height='90'>","null","Animation1",""
"","","","","","html-keyboard-response","151","401358","0.0-107.0","37","1","2025-01-25 16:42:24","af8d355d56820e421d246a7037deb6e6","174.74.179.46","Mozilla/5.0 (Windows NT 10.0; Win64; x64) AppleWebKit/537.36 (KHTML, like Gecko) Chrome/131.0.0.0 Safari/537.36","WebKit","Chrome","131.0.0.0","Windows","10.0","https://app.prolific.com/","en-US,en;q=0.9","6595ddebdbc6d36b1ef5462a","67949641171f97c04e14fb34","67951463b64fec483e23d92c","","2317","[""Did you notice any patterns? <br><br>Press Enter to watch that example again and follow the steps of Omgne Sort.""]","enter","",""
"","","","","","html-button-response","152","401765","0.0-108.0","37","1","2025-01-25 16:42:24","af8d355d56820e421d246a7037deb6e6","174.74.179.46","Mozilla/5.0 (Windows NT 10.0; Win64; x64) AppleWebKit/537.36 (KHTML, like Gecko) Chrome/131.0.0.0 Safari/537.36","WebKit","Chrome","131.0.0.0","Windows","10.0","https://app.prolific.com/","en-US,en;q=0.9","6595ddebdbc6d36b1ef5462a","67949641171f97c04e14fb34","67951463b64fec483e23d92c","","null","<img id='selected' src='G_5.jpg' height='90'> <img src='G_8.jpg' height='90'> <img src='G_6.jpg' height='90'> <img src='G_1.jpg' height='90'> <img src='G_2.jpg' height='90'> <img src='G_4.jpg' height='90'> <img src='G_3.jpg' height='90'> <img src='G_7.jpg' height='90'>","null","Learning example 1",""
"","","","","","html-button-response","153","402077","0.0-109.0","37","1","2025-01-25 16:42:24","af8d355d56820e421d246a7037deb6e6","174.74.179.46","Mozilla/5.0 (Windows NT 10.0; Win64; x64) AppleWebKit/537.36 (KHTML, like Gecko) Chrome/131.0.0.0 Safari/537.36","WebKit","Chrome","131.0.0.0","Windows","10.0","https://app.prolific.com/","en-US,en;q=0.9","6595ddebdbc6d36b1ef5462a","67949641171f97c04e14fb34","67951463b64fec483e23d92c","","null","<img id='selected' src='G_5.jpg' height='90'> <img id='selected' src='G_8.jpg' height='90'> <img src='G_6.jpg' height='90'> <img src='G_1.jpg' height='90'> <img src='G_2.jpg' height='90'> <img src='G_4.jpg' height='90'> <img src='G_3.jpg' height='90'> <img src='G_7.jpg' height='90'>","null","Learning example 1",""
