"success","timeout","failed_images","failed_audio","failed_video","trial_type","trial_index","time_elapsed","internal_node_id","run_id","condition","recorded_at","source_code_version","ip","user_agent","device","browser","browser_version","platform","platform_version","referer","accept_language","PROLIFIC_PID","STUDY_ID","SESSION_ID","view_history","rt","stimulus","response","phase"
"true","false","[]","[]","[]","preload","0","256","0.0-0.0","38","1","2025-01-25 16:43:21","af8d355d56820e421d246a7037deb6e6","72.48.24.143","Mozilla/5.0 (Windows NT 10.0; Win64; x64) AppleWebKit/537.36 (KHTML, like Gecko) Chrome/131.0.0.0 Safari/537.36","WebKit","Chrome","131.0.0.0","Windows","10.0","https://app.prolific.com/","en-US,en;q=0.9","662e920879f834a69ed53ed3","67949641171f97c04e14fb34","6795149f6b09fb5260e31cda","","","","",""
"","","","","","instructions","1","43636","0.0-1.0","38","1","2025-01-25 16:43:21","af8d355d56820e421d246a7037deb6e6","72.48.24.143","Mozilla/5.0 (Windows NT 10.0; Win64; x64) AppleWebKit/537.36 (KHTML, like Gecko) Chrome/131.0.0.0 Safari/537.36","WebKit","Chrome","131.0.0.0","Windows","10.0","https://app.prolific.com/","en-US,en;q=0.9","662e920879f834a69ed53ed3","67949641171f97c04e14fb34","6795149f6b09fb5260e31cda","[{""page_index"":0,""viewing_time"":43379}]","43379","","",""
"","","","","","html-keyboard-response","2","44153","0.0-2.0","38","1","2025-01-25 16:43:21","af8d355d56820e421d246a7037deb6e6","72.48.24.143","Mozilla/5.0 (Windows NT 10.0; Win64; x64) AppleWebKit/537.36 (KHTML, like Gecko) Chrome/131.0.0.0 Safari/537.36","WebKit","Chrome","131.0.0.0","Windows","10.0","https://app.prolific.com/","en-US,en;q=0.9","662e920879f834a69ed53ed3","67949641171f97c04e14fb34","6795149f6b09fb5260e31cda","","null","<p> + <p/>","null",""
"","","","","","instructions","3","98437","0.0-3.0","38","1","2025-01-25 16:43:21","af8d355d56820e421d246a7037deb6e6","72.48.24.143","Mozilla/5.0 (Windows NT 10.0; Win64; x64) AppleWebKit/537.36 (KHTML, like Gecko) Chrome/131.0.0.0 Safari/537.36","WebKit","Chrome","131.0.0.0","Windows","10.0","https://app.prolific.com/","en-US,en;q=0.9","662e920879f834a69ed53ed3","67949641171f97c04e14fb34","6795149f6b09fb5260e31cda","[{""page_index"":0,""viewing_time"":2507},{""page_index"":1,""viewing_time"":26990},{""page_index"":2,""viewing_time"":8256},{""page_index"":3,""viewing_time"":7185},{""page_index"":4,""viewing_time"":9346}]","54283","","",""
"","","","","","html-button-response","4","174971","0.0-4.0-0.0-0.0","38","1","2025-01-25 16:43:21","af8d355d56820e421d246a7037deb6e6","72.48.24.143","Mozilla/5.0 (Windows NT 10.0; Win64; x64) AppleWebKit/537.36 (KHTML, like Gecko) Chrome/131.0.0.0 Safari/537.36","WebKit","Chrome","131.0.0.0","Windows","10.0","https://app.prolific.com/","en-US,en;q=0.9","662e920879f834a69ed53ed3","67949641171f97c04e14fb34","6795149f6b09fb5260e31cda","","76531","","3","Intro Trial"
"","","","","","html-button-response","5","175611","0.0-4.1-0.1-0.1","38","1","2025-01-25 16:43:21","af8d355d56820e421d246a7037deb6e6","72.48.24.143","Mozilla/5.0 (Windows NT 10.0; Win64; x64) AppleWebKit/537.36 (KHTML, like Gecko) Chrome/131.0.0.0 Safari/537.36","WebKit","Chrome","131.0.0.0","Windows","10.0","https://app.prolific.com/","en-US,en;q=0.9","662e920879f834a69ed53ed3","67949641171f97c04e14fb34","6795149f6b09fb5260e31cda","","636","","2","Intro Trial"
"","","","","","html-button-response","6","177243","0.0-4.2-0.2-0.2","38","1","2025-01-25 16:43:21","af8d355d56820e421d246a7037deb6e6","72.48.24.143","Mozilla/5.0 (Windows NT 10.0; Win64; x64) AppleWebKit/537.36 (KHTML, like Gecko) Chrome/131.0.0.0 Safari/537.36","WebKit","Chrome","131.0.0.0","Windows","10.0","https://app.prolific.com/","en-US,en;q=0.9","662e920879f834a69ed53ed3","67949641171f97c04e14fb34","6795149f6b09fb5260e31cda","","1629","","3","Intro Trial"
"","","","","","html-button-response","7","178547","0.0-4.3-0.3-0.3","38","1","2025-01-25 16:43:21","af8d355d56820e421d246a7037deb6e6","72.48.24.143","Mozilla/5.0 (Windows NT 10.0; Win64; x64) AppleWebKit/537.36 (KHTML, like Gecko) Chrome/131.0.0.0 Safari/537.36","WebKit","Chrome","131.0.0.0","Windows","10.0","https://app.prolific.com/","en-US,en;q=0.9","662e920879f834a69ed53ed3","67949641171f97c04e14fb34","6795149f6b09fb5260e31cda","","1301","","2","Intro Trial"
"","","","","","html-button-response","8","179419","0.0-4.4-0.4-0.4","38","1","2025-01-25 16:43:21","af8d355d56820e421d246a7037deb6e6","72.48.24.143","Mozilla/5.0 (Windows NT 10.0; Win64; x64) AppleWebKit/537.36 (KHTML, like Gecko) Chrome/131.0.0.0 Safari/537.36","WebKit","Chrome","131.0.0.0","Windows","10.0","https://app.prolific.com/","en-US,en;q=0.9","662e920879f834a69ed53ed3","67949641171f97c04e14fb34","6795149f6b09fb5260e31cda","","870","","2","Intro Trial"
"","","","","","html-button-response","9","180507","0.0-4.5-0.5-0.5","38","1","2025-01-25 16:43:21","af8d355d56820e421d246a7037deb6e6","72.48.24.143","Mozilla/5.0 (Windows NT 10.0; Win64; x64) AppleWebKit/537.36 (KHTML, like Gecko) Chrome/131.0.0.0 Safari/537.36","WebKit","Chrome","131.0.0.0","Windows","10.0","https://app.prolific.com/","en-US,en;q=0.9","662e920879f834a69ed53ed3","67949641171f97c04e14fb34","6795149f6b09fb5260e31cda","","1085","","3","Intro Trial"
"","","","","","html-button-response","10","183282","0.0-4.6-0.6-0.6","38","1","2025-01-25 16:43:21","af8d355d56820e421d246a7037deb6e6","72.48.24.143","Mozilla/5.0 (Windows NT 10.0; Win64; x64) AppleWebKit/537.36 (KHTML, like Gecko) Chrome/131.0.0.0 Safari/537.36","WebKit","Chrome","131.0.0.0","Windows","10.0","https://app.prolific.com/","en-US,en;q=0.9","662e920879f834a69ed53ed3","67949641171f97c04e14fb34","6795149f6b09fb5260e31cda","","2774","","0","Intro Trial"
"","","","","","html-button-response","11","184011","0.0-4.7-0.7-0.7","38","1","2025-01-25 16:43:21","af8d355d56820e421d246a7037deb6e6","72.48.24.143","Mozilla/5.0 (Windows NT 10.0; Win64; x64) AppleWebKit/537.36 (KHTML, like Gecko) Chrome/131.0.0.0 Safari/537.36","WebKit","Chrome","131.0.0.0","Windows","10.0","https://app.prolific.com/","en-US,en;q=0.9","662e920879f834a69ed53ed3","67949641171f97c04e14fb34","6795149f6b09fb5260e31cda","","726","","1","Intro Trial"
"","","","","","html-button-response","12","204211","0.0-4.8-0.8-0.8","38","1","2025-01-25 16:43:21","af8d355d56820e421d246a7037deb6e6","72.48.24.143","Mozilla/5.0 (Windows NT 10.0; Win64; x64) AppleWebKit/537.36 (KHTML, like Gecko) Chrome/131.0.0.0 Safari/537.36","WebKit","Chrome","131.0.0.0","Windows","10.0","https://app.prolific.com/","en-US,en;q=0.9","662e920879f834a69ed53ed3","67949641171f97c04e14fb34","6795149f6b09fb5260e31cda","","20198","","3","Intro Trial"
"","","","","","html-button-response","13","205035","0.0-4.9-0.9-0.9","38","1","2025-01-25 16:43:21","af8d355d56820e421d246a7037deb6e6","72.48.24.143","Mozilla/5.0 (Windows NT 10.0; Win64; x64) AppleWebKit/537.36 (KHTML, like Gecko) Chrome/131.0.0.0 Safari/537.36","WebKit","Chrome","131.0.0.0","Windows","10.0","https://app.prolific.com/","en-US,en;q=0.9","662e920879f834a69ed53ed3","67949641171f97c04e14fb34","6795149f6b09fb5260e31cda","","820","","0","Intro Trial"
"","","","","","html-button-response","14","206250","0.0-4.10-0.10-0.10","38","1","2025-01-25 16:43:21","af8d355d56820e421d246a7037deb6e6","72.48.24.143","Mozilla/5.0 (Windows NT 10.0; Win64; x64) AppleWebKit/537.36 (KHTML, like Gecko) Chrome/131.0.0.0 Safari/537.36","WebKit","Chrome","131.0.0.0","Windows","10.0","https://app.prolific.com/","en-US,en;q=0.9","662e920879f834a69ed53ed3","67949641171f97c04e14fb34","6795149f6b09fb5260e31cda","","1214","","0","Intro Trial"
"","","","","","html-button-response","15","206967","0.0-4.11-0.11-0.11","38","1","2025-01-25 16:43:21","af8d355d56820e421d246a7037deb6e6","72.48.24.143","Mozilla/5.0 (Windows NT 10.0; Win64; x64) AppleWebKit/537.36 (KHTML, like Gecko) Chrome/131.0.0.0 Safari/537.36","WebKit","Chrome","131.0.0.0","Windows","10.0","https://app.prolific.com/","en-US,en;q=0.9","662e920879f834a69ed53ed3","67949641171f97c04e14fb34","6795149f6b09fb5260e31cda","","714","","3","Intro Trial"
"","","","","","html-button-response","16","207827","0.0-4.12-0.12-0.12","38","1","2025-01-25 16:43:21","af8d355d56820e421d246a7037deb6e6","72.48.24.143","Mozilla/5.0 (Windows NT 10.0; Win64; x64) AppleWebKit/537.36 (KHTML, like Gecko) Chrome/131.0.0.0 Safari/537.36","WebKit","Chrome","131.0.0.0","Windows","10.0","https://app.prolific.com/","en-US,en;q=0.9","662e920879f834a69ed53ed3","67949641171f97c04e14fb34","6795149f6b09fb5260e31cda","","858","","3","Intro Trial"
"","","","","","html-button-response","17","208955","0.0-4.13-0.13-0.13","38","1","2025-01-25 16:43:21","af8d355d56820e421d246a7037deb6e6","72.48.24.143","Mozilla/5.0 (Windows NT 10.0; Win64; x64) AppleWebKit/537.36 (KHTML, like Gecko) Chrome/131.0.0.0 Safari/537.36","WebKit","Chrome","131.0.0.0","Windows","10.0","https://app.prolific.com/","en-US,en;q=0.9","662e920879f834a69ed53ed3","67949641171f97c04e14fb34","6795149f6b09fb5260e31cda","","1126","","0","Intro Trial"
"","","","","","html-button-response","18","221050","0.0-4.14-0.14-0.14","38","1","2025-01-25 16:43:21","af8d355d56820e421d246a7037deb6e6","72.48.24.143","Mozilla/5.0 (Windows NT 10.0; Win64; x64) AppleWebKit/537.36 (KHTML, like Gecko) Chrome/131.0.0.0 Safari/537.36","WebKit","Chrome","131.0.0.0","Windows","10.0","https://app.prolific.com/","en-US,en;q=0.9","662e920879f834a69ed53ed3","67949641171f97c04e14fb34","6795149f6b09fb5260e31cda","","12093","","1","Intro Trial"
"","","","","","html-button-response","19","224859","0.0-4.15-0.15-0.15","38","1","2025-01-25 16:43:21","af8d355d56820e421d246a7037deb6e6","72.48.24.143","Mozilla/5.0 (Windows NT 10.0; Win64; x64) AppleWebKit/537.36 (KHTML, like Gecko) Chrome/131.0.0.0 Safari/537.36","WebKit","Chrome","131.0.0.0","Windows","10.0","https://app.prolific.com/","en-US,en;q=0.9","662e920879f834a69ed53ed3","67949641171f97c04e14fb34","6795149f6b09fb5260e31cda","","3805","","3","Intro Trial"
"","","","","","html-button-response","20","228403","0.0-4.16-0.16-0.16","38","1","2025-01-25 16:43:21","af8d355d56820e421d246a7037deb6e6","72.48.24.143","Mozilla/5.0 (Windows NT 10.0; Win64; x64) AppleWebKit/537.36 (KHTML, like Gecko) Chrome/131.0.0.0 Safari/537.36","WebKit","Chrome","131.0.0.0","Windows","10.0","https://app.prolific.com/","en-US,en;q=0.9","662e920879f834a69ed53ed3","67949641171f97c04e14fb34","6795149f6b09fb5260e31cda","","3542","","4","Intro Trial"
"","","","","","html-button-response","21","229219","0.0-4.17-0.17-0.17","38","1","2025-01-25 16:43:21","af8d355d56820e421d246a7037deb6e6","72.48.24.143","Mozilla/5.0 (Windows NT 10.0; Win64; x64) AppleWebKit/537.36 (KHTML, like Gecko) Chrome/131.0.0.0 Safari/537.36","WebKit","Chrome","131.0.0.0","Windows","10.0","https://app.prolific.com/","en-US,en;q=0.9","662e920879f834a69ed53ed3","67949641171f97c04e14fb34","6795149f6b09fb5260e31cda","","814","","2","Intro Trial"
"","","","","","html-button-response","22","232899","0.0-4.18-0.18-0.18","38","1","2025-01-25 16:43:21","af8d355d56820e421d246a7037deb6e6","72.48.24.143","Mozilla/5.0 (Windows NT 10.0; Win64; x64) AppleWebKit/537.36 (KHTML, like Gecko) Chrome/131.0.0.0 Safari/537.36","WebKit","Chrome","131.0.0.0","Windows","10.0","https://app.prolific.com/","en-US,en;q=0.9","662e920879f834a69ed53ed3","67949641171f97c04e14fb34","6795149f6b09fb5260e31cda","","3677","","3","Intro Trial"
"","","","","","html-button-response","23","233730","0.0-4.19-0.19-0.19","38","1","2025-01-25 16:43:21","af8d355d56820e421d246a7037deb6e6","72.48.24.143","Mozilla/5.0 (Windows NT 10.0; Win64; x64) AppleWebKit/537.36 (KHTML, like Gecko) Chrome/131.0.0.0 Safari/537.36","WebKit","Chrome","131.0.0.0","Windows","10.0","https://app.prolific.com/","en-US,en;q=0.9","662e920879f834a69ed53ed3","67949641171f97c04e14fb34","6795149f6b09fb5260e31cda","","829","","0","Intro Trial"
"","","","","","html-button-response","24","236042","0.0-4.20-0.20-0.20","38","1","2025-01-25 16:43:21","af8d355d56820e421d246a7037deb6e6","72.48.24.143","Mozilla/5.0 (Windows NT 10.0; Win64; x64) AppleWebKit/537.36 (KHTML, like Gecko) Chrome/131.0.0.0 Safari/537.36","WebKit","Chrome","131.0.0.0","Windows","10.0","https://app.prolific.com/","en-US,en;q=0.9","662e920879f834a69ed53ed3","67949641171f97c04e14fb34","6795149f6b09fb5260e31cda","","2310","","3","Intro Trial"
"","","","","","html-button-response","25","236666","0.0-4.21-0.21-0.21","38","1","2025-01-25 16:43:21","af8d355d56820e421d246a7037deb6e6","72.48.24.143","Mozilla/5.0 (Windows NT 10.0; Win64; x64) AppleWebKit/537.36 (KHTML, like Gecko) Chrome/131.0.0.0 Safari/537.36","WebKit","Chrome","131.0.0.0","Windows","10.0","https://app.prolific.com/","en-US,en;q=0.9","662e920879f834a69ed53ed3","67949641171f97c04e14fb34","6795149f6b09fb5260e31cda","","622","","2","Intro Trial"
"","","","","","html-button-response","26","237530","0.0-4.22-0.22-0.22","38","1","2025-01-25 16:43:21","af8d355d56820e421d246a7037deb6e6","72.48.24.143","Mozilla/5.0 (Windows NT 10.0; Win64; x64) AppleWebKit/537.36 (KHTML, like Gecko) Chrome/131.0.0.0 Safari/537.36","WebKit","Chrome","131.0.0.0","Windows","10.0","https://app.prolific.com/","en-US,en;q=0.9","662e920879f834a69ed53ed3","67949641171f97c04e14fb34","6795149f6b09fb5260e31cda","","861","","2","Intro Trial"
"","","","","","html-button-response","27","238162","0.0-4.23-0.23-0.23","38","1","2025-01-25 16:43:21","af8d355d56820e421d246a7037deb6e6","72.48.24.143","Mozilla/5.0 (Windows NT 10.0; Win64; x64) AppleWebKit/537.36 (KHTML, like Gecko) Chrome/131.0.0.0 Safari/537.36","WebKit","Chrome","131.0.0.0","Windows","10.0","https://app.prolific.com/","en-US,en;q=0.9","662e920879f834a69ed53ed3","67949641171f97c04e14fb34","6795149f6b09fb5260e31cda","","630","","3","Intro Trial"
"","","","","","html-button-response","28","239290","0.0-4.24-0.24-0.24","38","1","2025-01-25 16:43:21","af8d355d56820e421d246a7037deb6e6","72.48.24.143","Mozilla/5.0 (Windows NT 10.0; Win64; x64) AppleWebKit/537.36 (KHTML, like Gecko) Chrome/131.0.0.0 Safari/537.36","WebKit","Chrome","131.0.0.0","Windows","10.0","https://app.prolific.com/","en-US,en;q=0.9","662e920879f834a69ed53ed3","67949641171f97c04e14fb34","6795149f6b09fb5260e31cda","","1125","","2","Intro Trial"
"","","","","","html-button-response","29","239875","0.0-4.25-0.25-0.25","38","1","2025-01-25 16:43:21","af8d355d56820e421d246a7037deb6e6","72.48.24.143","Mozilla/5.0 (Windows NT 10.0; Win64; x64) AppleWebKit/537.36 (KHTML, like Gecko) Chrome/131.0.0.0 Safari/537.36","WebKit","Chrome","131.0.0.0","Windows","10.0","https://app.prolific.com/","en-US,en;q=0.9","662e920879f834a69ed53ed3","67949641171f97c04e14fb34","6795149f6b09fb5260e31cda","","582","","3","Intro Trial"
"","","","","","html-button-response","30","241266","0.0-4.26-0.26-0.26","38","1","2025-01-25 16:43:21","af8d355d56820e421d246a7037deb6e6","72.48.24.143","Mozilla/5.0 (Windows NT 10.0; Win64; x64) AppleWebKit/537.36 (KHTML, like Gecko) Chrome/131.0.0.0 Safari/537.36","WebKit","Chrome","131.0.0.0","Windows","10.0","https://app.prolific.com/","en-US,en;q=0.9","662e920879f834a69ed53ed3","67949641171f97c04e14fb34","6795149f6b09fb5260e31cda","","1389","","1","Intro Trial"
"","","","","","html-button-response","31","242154","0.0-4.27-0.27-0.27","38","1","2025-01-25 16:43:21","af8d355d56820e421d246a7037deb6e6","72.48.24.143","Mozilla/5.0 (Windows NT 10.0; Win64; x64) AppleWebKit/537.36 (KHTML, like Gecko) Chrome/131.0.0.0 Safari/537.36","WebKit","Chrome","131.0.0.0","Windows","10.0","https://app.prolific.com/","en-US,en;q=0.9","662e920879f834a69ed53ed3","67949641171f97c04e14fb34","6795149f6b09fb5260e31cda","","885","","2","Intro Trial"
"","","","","","html-button-response","32","261874","0.0-4.28-0.28-0.28","38","1","2025-01-25 16:43:21","af8d355d56820e421d246a7037deb6e6","72.48.24.143","Mozilla/5.0 (Windows NT 10.0; Win64; x64) AppleWebKit/537.36 (KHTML, like Gecko) Chrome/131.0.0.0 Safari/537.36","WebKit","Chrome","131.0.0.0","Windows","10.0","https://app.prolific.com/","en-US,en;q=0.9","662e920879f834a69ed53ed3","67949641171f97c04e14fb34","6795149f6b09fb5260e31cda","","19717","","0","Intro Trial"
"","","","","","html-button-response","33","262458","0.0-4.29-0.29-0.29","38","1","2025-01-25 16:43:21","af8d355d56820e421d246a7037deb6e6","72.48.24.143","Mozilla/5.0 (Windows NT 10.0; Win64; x64) AppleWebKit/537.36 (KHTML, like Gecko) Chrome/131.0.0.0 Safari/537.36","WebKit","Chrome","131.0.0.0","Windows","10.0","https://app.prolific.com/","en-US,en;q=0.9","662e920879f834a69ed53ed3","67949641171f97c04e14fb34","6795149f6b09fb5260e31cda","","581","","1","Intro Trial"
"","","","","","html-button-response","34","265298","0.0-4.30-0.30-0.30","38","1","2025-01-25 16:43:21","af8d355d56820e421d246a7037deb6e6","72.48.24.143","Mozilla/5.0 (Windows NT 10.0; Win64; x64) AppleWebKit/537.36 (KHTML, like Gecko) Chrome/131.0.0.0 Safari/537.36","WebKit","Chrome","131.0.0.0","Windows","10.0","https://app.prolific.com/","en-US,en;q=0.9","662e920879f834a69ed53ed3","67949641171f97c04e14fb34","6795149f6b09fb5260e31cda","","2837","","1","Intro Trial"
"","","","","","html-button-response","35","265826","0.0-4.31-0.31-0.31","38","1","2025-01-25 16:43:21","af8d355d56820e421d246a7037deb6e6","72.48.24.143","Mozilla/5.0 (Windows NT 10.0; Win64; x64) AppleWebKit/537.36 (KHTML, like Gecko) Chrome/131.0.0.0 Safari/537.36","WebKit","Chrome","131.0.0.0","Windows","10.0","https://app.prolific.com/","en-US,en;q=0.9","662e920879f834a69ed53ed3","67949641171f97c04e14fb34","6795149f6b09fb5260e31cda","","525","","2","Intro Trial"
"","","","","","html-button-response","36","266562","0.0-4.32-0.32-0.32","38","1","2025-01-25 16:43:21","af8d355d56820e421d246a7037deb6e6","72.48.24.143","Mozilla/5.0 (Windows NT 10.0; Win64; x64) AppleWebKit/537.36 (KHTML, like Gecko) Chrome/131.0.0.0 Safari/537.36","WebKit","Chrome","131.0.0.0","Windows","10.0","https://app.prolific.com/","en-US,en;q=0.9","662e920879f834a69ed53ed3","67949641171f97c04e14fb34","6795149f6b09fb5260e31cda","","733","","2","Intro Trial"
"","","","","","html-button-response","37","267146","0.0-4.33-0.33-0.33","38","1","2025-01-25 16:43:21","af8d355d56820e421d246a7037deb6e6","72.48.24.143","Mozilla/5.0 (Windows NT 10.0; Win64; x64) AppleWebKit/537.36 (KHTML, like Gecko) Chrome/131.0.0.0 Safari/537.36","WebKit","Chrome","131.0.0.0","Windows","10.0","https://app.prolific.com/","en-US,en;q=0.9","662e920879f834a69ed53ed3","67949641171f97c04e14fb34","6795149f6b09fb5260e31cda","","581","","1","Intro Trial"
"","","","","","html-button-response","38","269034","0.0-4.34-0.34-0.34","38","1","2025-01-25 16:43:21","af8d355d56820e421d246a7037deb6e6","72.48.24.143","Mozilla/5.0 (Windows NT 10.0; Win64; x64) AppleWebKit/537.36 (KHTML, like Gecko) Chrome/131.0.0.0 Safari/537.36","WebKit","Chrome","131.0.0.0","Windows","10.0","https://app.prolific.com/","en-US,en;q=0.9","662e920879f834a69ed53ed3","67949641171f97c04e14fb34","6795149f6b09fb5260e31cda","","1885","","2","Intro Trial"
"","","","","","html-button-response","39","269811","0.0-4.35-0.35-0.35","38","1","2025-01-25 16:43:21","af8d355d56820e421d246a7037deb6e6","72.48.24.143","Mozilla/5.0 (Windows NT 10.0; Win64; x64) AppleWebKit/537.36 (KHTML, like Gecko) Chrome/131.0.0.0 Safari/537.36","WebKit","Chrome","131.0.0.0","Windows","10.0","https://app.prolific.com/","en-US,en;q=0.9","662e920879f834a69ed53ed3","67949641171f97c04e14fb34","6795149f6b09fb5260e31cda","","773","","3","Intro Trial"
"","","","","","html-button-response","40","286626","0.0-4.36-0.36-0.36","38","1","2025-01-25 16:43:21","af8d355d56820e421d246a7037deb6e6","72.48.24.143","Mozilla/5.0 (Windows NT 10.0; Win64; x64) AppleWebKit/537.36 (KHTML, like Gecko) Chrome/131.0.0.0 Safari/537.36","WebKit","Chrome","131.0.0.0","Windows","10.0","https://app.prolific.com/","en-US,en;q=0.9","662e920879f834a69ed53ed3","67949641171f97c04e14fb34","6795149f6b09fb5260e31cda","","16813","","4","Intro Trial"
"","","","","","html-button-response","41","287570","0.0-4.37-0.37-0.37","38","1","2025-01-25 16:43:21","af8d355d56820e421d246a7037deb6e6","72.48.24.143","Mozilla/5.0 (Windows NT 10.0; Win64; x64) AppleWebKit/537.36 (KHTML, like Gecko) Chrome/131.0.0.0 Safari/537.36","WebKit","Chrome","131.0.0.0","Windows","10.0","https://app.prolific.com/","en-US,en;q=0.9","662e920879f834a69ed53ed3","67949641171f97c04e14fb34","6795149f6b09fb5260e31cda","","941","","0","Intro Trial"
"","","","","","html-button-response","42","288226","0.0-4.38-0.38-0.38","38","1","2025-01-25 16:43:21","af8d355d56820e421d246a7037deb6e6","72.48.24.143","Mozilla/5.0 (Windows NT 10.0; Win64; x64) AppleWebKit/537.36 (KHTML, like Gecko) Chrome/131.0.0.0 Safari/537.36","WebKit","Chrome","131.0.0.0","Windows","10.0","https://app.prolific.com/","en-US,en;q=0.9","662e920879f834a69ed53ed3","67949641171f97c04e14fb34","6795149f6b09fb5260e31cda","","654","","0","Intro Trial"
"","","","","","html-button-response","43","289146","0.0-4.39-0.39-0.39","38","1","2025-01-25 16:43:21","af8d355d56820e421d246a7037deb6e6","72.48.24.143","Mozilla/5.0 (Windows NT 10.0; Win64; x64) AppleWebKit/537.36 (KHTML, like Gecko) Chrome/131.0.0.0 Safari/537.36","WebKit","Chrome","131.0.0.0","Windows","10.0","https://app.prolific.com/","en-US,en;q=0.9","662e920879f834a69ed53ed3","67949641171f97c04e14fb34","6795149f6b09fb5260e31cda","","917","","1","Intro Trial"
"","","","","","html-button-response","44","290559","0.0-4.40-0.40-0.40","38","1","2025-01-25 16:43:21","af8d355d56820e421d246a7037deb6e6","72.48.24.143","Mozilla/5.0 (Windows NT 10.0; Win64; x64) AppleWebKit/537.36 (KHTML, like Gecko) Chrome/131.0.0.0 Safari/537.36","WebKit","Chrome","131.0.0.0","Windows","10.0","https://app.prolific.com/","en-US,en;q=0.9","662e920879f834a69ed53ed3","67949641171f97c04e14fb34","6795149f6b09fb5260e31cda","","1410","","0","Intro Trial"
"","","","","","html-button-response","45","291458","0.0-4.41-0.41-0.41","38","1","2025-01-25 16:43:21","af8d355d56820e421d246a7037deb6e6","72.48.24.143","Mozilla/5.0 (Windows NT 10.0; Win64; x64) AppleWebKit/537.36 (KHTML, like Gecko) Chrome/131.0.0.0 Safari/537.36","WebKit","Chrome","131.0.0.0","Windows","10.0","https://app.prolific.com/","en-US,en;q=0.9","662e920879f834a69ed53ed3","67949641171f97c04e14fb34","6795149f6b09fb5260e31cda","","896","","2","Intro Trial"
"","","","","","html-button-response","46","292507","0.0-4.42-0.42-0.42","38","1","2025-01-25 16:43:21","af8d355d56820e421d246a7037deb6e6","72.48.24.143","Mozilla/5.0 (Windows NT 10.0; Win64; x64) AppleWebKit/537.36 (KHTML, like Gecko) Chrome/131.0.0.0 Safari/537.36","WebKit","Chrome","131.0.0.0","Windows","10.0","https://app.prolific.com/","en-US,en;q=0.9","662e920879f834a69ed53ed3","67949641171f97c04e14fb34","6795149f6b09fb5260e31cda","","1046","","0","Intro Trial"
"","","","","","html-button-response","47","293250","0.0-4.43-0.43-0.43","38","1","2025-01-25 16:43:21","af8d355d56820e421d246a7037deb6e6","72.48.24.143","Mozilla/5.0 (Windows NT 10.0; Win64; x64) AppleWebKit/537.36 (KHTML, like Gecko) Chrome/131.0.0.0 Safari/537.36","WebKit","Chrome","131.0.0.0","Windows","10.0","https://app.prolific.com/","en-US,en;q=0.9","662e920879f834a69ed53ed3","67949641171f97c04e14fb34","6795149f6b09fb5260e31cda","","741","","3","Intro Trial"
"","","","","","html-button-response","48","294006","0.0-4.44-0.44-0.44","38","1","2025-01-25 16:43:21","af8d355d56820e421d246a7037deb6e6","72.48.24.143","Mozilla/5.0 (Windows NT 10.0; Win64; x64) AppleWebKit/537.36 (KHTML, like Gecko) Chrome/131.0.0.0 Safari/537.36","WebKit","Chrome","131.0.0.0","Windows","10.0","https://app.prolific.com/","en-US,en;q=0.9","662e920879f834a69ed53ed3","67949641171f97c04e14fb34","6795149f6b09fb5260e31cda","","753","","3","Intro Trial"
"","","","","","html-button-response","49","294770","0.0-4.45-0.45-0.45","38","1","2025-01-25 16:43:21","af8d355d56820e421d246a7037deb6e6","72.48.24.143","Mozilla/5.0 (Windows NT 10.0; Win64; x64) AppleWebKit/537.36 (KHTML, like Gecko) Chrome/131.0.0.0 Safari/537.36","WebKit","Chrome","131.0.0.0","Windows","10.0","https://app.prolific.com/","en-US,en;q=0.9","662e920879f834a69ed53ed3","67949641171f97c04e14fb34","6795149f6b09fb5260e31cda","","761","","4","Intro Trial"
"","","","","","html-button-response","50","297566","0.0-4.46-0.46-0.46","38","1","2025-01-25 16:43:21","af8d355d56820e421d246a7037deb6e6","72.48.24.143","Mozilla/5.0 (Windows NT 10.0; Win64; x64) AppleWebKit/537.36 (KHTML, like Gecko) Chrome/131.0.0.0 Safari/537.36","WebKit","Chrome","131.0.0.0","Windows","10.0","https://app.prolific.com/","en-US,en;q=0.9","662e920879f834a69ed53ed3","67949641171f97c04e14fb34","6795149f6b09fb5260e31cda","","2793","","2","Intro Trial"
"","","","","","html-button-response","51","298346","0.0-4.47-0.47-0.47","38","1","2025-01-25 16:43:21","af8d355d56820e421d246a7037deb6e6","72.48.24.143","Mozilla/5.0 (Windows NT 10.0; Win64; x64) AppleWebKit/537.36 (KHTML, like Gecko) Chrome/131.0.0.0 Safari/537.36","WebKit","Chrome","131.0.0.0","Windows","10.0","https://app.prolific.com/","en-US,en;q=0.9","662e920879f834a69ed53ed3","67949641171f97c04e14fb34","6795149f6b09fb5260e31cda","","777","","3","Intro Trial"
"","","","","","html-button-response","52","300587","0.0-4.48-0.48-0.48","38","1","2025-01-25 16:43:21","af8d355d56820e421d246a7037deb6e6","72.48.24.143","Mozilla/5.0 (Windows NT 10.0; Win64; x64) AppleWebKit/537.36 (KHTML, like Gecko) Chrome/131.0.0.0 Safari/537.36","WebKit","Chrome","131.0.0.0","Windows","10.0","https://app.prolific.com/","en-US,en;q=0.9","662e920879f834a69ed53ed3","67949641171f97c04e14fb34","6795149f6b09fb5260e31cda","","2238","","1","Intro Trial"
"","","","","","html-button-response","53","301146","0.0-4.49-0.49-0.49","38","1","2025-01-25 16:43:21","af8d355d56820e421d246a7037deb6e6","72.48.24.143","Mozilla/5.0 (Windows NT 10.0; Win64; x64) AppleWebKit/537.36 (KHTML, like Gecko) Chrome/131.0.0.0 Safari/537.36","WebKit","Chrome","131.0.0.0","Windows","10.0","https://app.prolific.com/","en-US,en;q=0.9","662e920879f834a69ed53ed3","67949641171f97c04e14fb34","6795149f6b09fb5260e31cda","","556","","2","Intro Trial"
"","","","","","html-button-response","54","302737","0.0-4.50-0.50-0.50","38","1","2025-01-25 16:43:21","af8d355d56820e421d246a7037deb6e6","72.48.24.143","Mozilla/5.0 (Windows NT 10.0; Win64; x64) AppleWebKit/537.36 (KHTML, like Gecko) Chrome/131.0.0.0 Safari/537.36","WebKit","Chrome","131.0.0.0","Windows","10.0","https://app.prolific.com/","en-US,en;q=0.9","662e920879f834a69ed53ed3","67949641171f97c04e14fb34","6795149f6b09fb5260e31cda","","1588","","2","Intro Trial"
"","","","","","html-button-response","55","304282","0.0-4.51-0.51-0.51","38","1","2025-01-25 16:43:21","af8d355d56820e421d246a7037deb6e6","72.48.24.143","Mozilla/5.0 (Windows NT 10.0; Win64; x64) AppleWebKit/537.36 (KHTML, like Gecko) Chrome/131.0.0.0 Safari/537.36","WebKit","Chrome","131.0.0.0","Windows","10.0","https://app.prolific.com/","en-US,en;q=0.9","662e920879f834a69ed53ed3","67949641171f97c04e14fb34","6795149f6b09fb5260e31cda","","1543","","1","Intro Trial"
"","","","","","html-button-response","56","309514","0.0-4.52-0.52-0.52","38","1","2025-01-25 16:43:21","af8d355d56820e421d246a7037deb6e6","72.48.24.143","Mozilla/5.0 (Windows NT 10.0; Win64; x64) AppleWebKit/537.36 (KHTML, like Gecko) Chrome/131.0.0.0 Safari/537.36","WebKit","Chrome","131.0.0.0","Windows","10.0","https://app.prolific.com/","en-US,en;q=0.9","662e920879f834a69ed53ed3","67949641171f97c04e14fb34","6795149f6b09fb5260e31cda","","5229","","2","Intro Trial"
"","","","","","html-button-response","57","310218","0.0-4.53-0.53-0.53","38","1","2025-01-25 16:43:21","af8d355d56820e421d246a7037deb6e6","72.48.24.143","Mozilla/5.0 (Windows NT 10.0; Win64; x64) AppleWebKit/537.36 (KHTML, like Gecko) Chrome/131.0.0.0 Safari/537.36","WebKit","Chrome","131.0.0.0","Windows","10.0","https://app.prolific.com/","en-US,en;q=0.9","662e920879f834a69ed53ed3","67949641171f97c04e14fb34","6795149f6b09fb5260e31cda","","700","","1","Intro Trial"
"","","","","","html-button-response","58","311075","0.0-4.54-0.54-0.54","38","1","2025-01-25 16:43:21","af8d355d56820e421d246a7037deb6e6","72.48.24.143","Mozilla/5.0 (Windows NT 10.0; Win64; x64) AppleWebKit/537.36 (KHTML, like Gecko) Chrome/131.0.0.0 Safari/537.36","WebKit","Chrome","131.0.0.0","Windows","10.0","https://app.prolific.com/","en-US,en;q=0.9","662e920879f834a69ed53ed3","67949641171f97c04e14fb34","6795149f6b09fb5260e31cda","","854","","2","Intro Trial"
"","","","","","html-button-response","59","312042","0.0-4.55-0.55-0.55","38","1","2025-01-25 16:43:21","af8d355d56820e421d246a7037deb6e6","72.48.24.143","Mozilla/5.0 (Windows NT 10.0; Win64; x64) AppleWebKit/537.36 (KHTML, like Gecko) Chrome/131.0.0.0 Safari/537.36","WebKit","Chrome","131.0.0.0","Windows","10.0","https://app.prolific.com/","en-US,en;q=0.9","662e920879f834a69ed53ed3","67949641171f97c04e14fb34","6795149f6b09fb5260e31cda","","964","","0","Intro Trial"
"","","","","","html-button-response","60","343402","0.0-4.56-0.56-0.56","38","1","2025-01-25 16:43:21","af8d355d56820e421d246a7037deb6e6","72.48.24.143","Mozilla/5.0 (Windows NT 10.0; Win64; x64) AppleWebKit/537.36 (KHTML, like Gecko) Chrome/131.0.0.0 Safari/537.36","WebKit","Chrome","131.0.0.0","Windows","10.0","https://app.prolific.com/","en-US,en;q=0.9","662e920879f834a69ed53ed3","67949641171f97c04e14fb34","6795149f6b09fb5260e31cda","","31357","","4","Intro Trial"
"","","","","","html-button-response","61","344510","0.0-4.57-0.57-0.57","38","1","2025-01-25 16:43:21","af8d355d56820e421d246a7037deb6e6","72.48.24.143","Mozilla/5.0 (Windows NT 10.0; Win64; x64) AppleWebKit/537.36 (KHTML, like Gecko) Chrome/131.0.0.0 Safari/537.36","WebKit","Chrome","131.0.0.0","Windows","10.0","https://app.prolific.com/","en-US,en;q=0.9","662e920879f834a69ed53ed3","67949641171f97c04e14fb34","6795149f6b09fb5260e31cda","","1104","","3","Intro Trial"
"","","","","","html-button-response","62","345426","0.0-4.58-0.58-0.58","38","1","2025-01-25 16:43:21","af8d355d56820e421d246a7037deb6e6","72.48.24.143","Mozilla/5.0 (Windows NT 10.0; Win64; x64) AppleWebKit/537.36 (KHTML, like Gecko) Chrome/131.0.0.0 Safari/537.36","WebKit","Chrome","131.0.0.0","Windows","10.0","https://app.prolific.com/","en-US,en;q=0.9","662e920879f834a69ed53ed3","67949641171f97c04e14fb34","6795149f6b09fb5260e31cda","","914","","4","Intro Trial"
"","","","","","html-button-response","63","346130","0.0-4.59-0.59-0.59","38","1","2025-01-25 16:43:21","af8d355d56820e421d246a7037deb6e6","72.48.24.143","Mozilla/5.0 (Windows NT 10.0; Win64; x64) AppleWebKit/537.36 (KHTML, like Gecko) Chrome/131.0.0.0 Safari/537.36","WebKit","Chrome","131.0.0.0","Windows","10.0","https://app.prolific.com/","en-US,en;q=0.9","662e920879f834a69ed53ed3","67949641171f97c04e14fb34","6795149f6b09fb5260e31cda","","700","","2","Intro Trial"
"","","","","","html-button-response","64","347066","0.0-4.60-0.60-0.60","38","1","2025-01-25 16:43:21","af8d355d56820e421d246a7037deb6e6","72.48.24.143","Mozilla/5.0 (Windows NT 10.0; Win64; x64) AppleWebKit/537.36 (KHTML, like Gecko) Chrome/131.0.0.0 Safari/537.36","WebKit","Chrome","131.0.0.0","Windows","10.0","https://app.prolific.com/","en-US,en;q=0.9","662e920879f834a69ed53ed3","67949641171f97c04e14fb34","6795149f6b09fb5260e31cda","","932","","4","Intro Trial"
"","","","","","html-button-response","65","347986","0.0-4.61-0.61-0.61","38","1","2025-01-25 16:43:21","af8d355d56820e421d246a7037deb6e6","72.48.24.143","Mozilla/5.0 (Windows NT 10.0; Win64; x64) AppleWebKit/537.36 (KHTML, like Gecko) Chrome/131.0.0.0 Safari/537.36","WebKit","Chrome","131.0.0.0","Windows","10.0","https://app.prolific.com/","en-US,en;q=0.9","662e920879f834a69ed53ed3","67949641171f97c04e14fb34","6795149f6b09fb5260e31cda","","917","","1","Intro Trial"
"","","","","","html-button-response","66","354714","0.0-4.62-0.62-0.62","38","1","2025-01-25 16:43:21","af8d355d56820e421d246a7037deb6e6","72.48.24.143","Mozilla/5.0 (Windows NT 10.0; Win64; x64) AppleWebKit/537.36 (KHTML, like Gecko) Chrome/131.0.0.0 Safari/537.36","WebKit","Chrome","131.0.0.0","Windows","10.0","https://app.prolific.com/","en-US,en;q=0.9","662e920879f834a69ed53ed3","67949641171f97c04e14fb34","6795149f6b09fb5260e31cda","","6725","","5","Intro Trial"
"","","","","","html-keyboard-response","67","398771","0.0-5.0","38","1","2025-01-25 16:43:21","af8d355d56820e421d246a7037deb6e6","72.48.24.143","Mozilla/5.0 (Windows NT 10.0; Win64; x64) AppleWebKit/537.36 (KHTML, like Gecko) Chrome/131.0.0.0 Safari/537.36","WebKit","Chrome","131.0.0.0","Windows","10.0","https://app.prolific.com/","en-US,en;q=0.9","662e920879f834a69ed53ed3","67949641171f97c04e14fb34","6795149f6b09fb5260e31cda","","44054","[""You sorted correctly by using the balance 31 times. <br><br> <img src='G_5.jpg' height='90'><img src='G_2.jpg' height='90'><img src='G_3.jpg' height='90'><img src='G_1.jpg' height='90'><img src='G_4.jpg' height='90'><br><br> Your final order is 1,2,3,4,5<br><br><br>Omgne Sort in this game will allow you to sort correctly by using the balance 8 times. Press Enter to learn it!""]","enter",""
"","","","","","html-keyboard-response","68","402701","0.0-6.0","38","1","2025-01-25 16:43:21","af8d355d56820e421d246a7037deb6e6","72.48.24.143","Mozilla/5.0 (Windows NT 10.0; Win64; x64) AppleWebKit/537.36 (KHTML, like Gecko) Chrome/131.0.0.0 Safari/537.36","WebKit","Chrome","131.0.0.0","Windows","10.0","https://app.prolific.com/","en-US,en;q=0.9","662e920879f834a69ed53ed3","67949641171f97c04e14fb34","6795149f6b09fb5260e31cda","","3926","<p>Welcome to the learning phase! <br><br> You will learn by six examples. The following learning trials will not be used to calculate your performance. <br><br> Press Enter to continue.<p/>","enter",""
"","","","","","html-keyboard-response","69","406723","0.0-7.0","38","1","2025-01-25 16:43:21","af8d355d56820e421d246a7037deb6e6","72.48.24.143","Mozilla/5.0 (Windows NT 10.0; Win64; x64) AppleWebKit/537.36 (KHTML, like Gecko) Chrome/131.0.0.0 Safari/537.36","WebKit","Chrome","131.0.0.0","Windows","10.0","https://app.prolific.com/","en-US,en;q=0.9","662e920879f834a69ed53ed3","67949641171f97c04e14fb34","6795149f6b09fb5260e31cda","","4020","[""Example 1<br><br>You will watch Omnge Sort in action. Try to identify any patterns in the comparisons made by this method. <br><br>Press Enter to continue.""]","enter",""
"","","","","","html-keyboard-response","70","407232","0.0-8.0","38","1","2025-01-25 16:43:21","af8d355d56820e421d246a7037deb6e6","72.48.24.143","Mozilla/5.0 (Windows NT 10.0; Win64; x64) AppleWebKit/537.36 (KHTML, like Gecko) Chrome/131.0.0.0 Safari/537.36","WebKit","Chrome","131.0.0.0","Windows","10.0","https://app.prolific.com/","en-US,en;q=0.9","662e920879f834a69ed53ed3","67949641171f97c04e14fb34","6795149f6b09fb5260e31cda","","null","<img id='selected' src='G_5.jpg' height='90'> <img src='G_9.jpg' height='90'> <img src='G_7.jpg' height='90'> <img src='G_1.jpg' height='90'> <img src='G_3.jpg' height='90'>","null","Animation0"
"","","","","","html-keyboard-response","71","407740","0.0-9.0","38","1","2025-01-25 16:43:21","af8d355d56820e421d246a7037deb6e6","72.48.24.143","Mozilla/5.0 (Windows NT 10.0; Win64; x64) AppleWebKit/537.36 (KHTML, like Gecko) Chrome/131.0.0.0 Safari/537.36","WebKit","Chrome","131.0.0.0","Windows","10.0","https://app.prolific.com/","en-US,en;q=0.9","662e920879f834a69ed53ed3","67949641171f97c04e14fb34","6795149f6b09fb5260e31cda","","null","<img id='selected' src='G_5.jpg' height='90'> <img id='selected' src='G_9.jpg' height='90'> <img src='G_7.jpg' height='90'> <img src='G_1.jpg' height='90'> <img src='G_3.jpg' height='90'>","null","Animation0"
"","","","","","html-keyboard-response","72","408257","0.0-10.0","38","1","2025-01-25 16:43:21","af8d355d56820e421d246a7037deb6e6","72.48.24.143","Mozilla/5.0 (Windows NT 10.0; Win64; x64) AppleWebKit/537.36 (KHTML, like Gecko) Chrome/131.0.0.0 Safari/537.36","WebKit","Chrome","131.0.0.0","Windows","10.0","https://app.prolific.com/","en-US,en;q=0.9","662e920879f834a69ed53ed3","67949641171f97c04e14fb34","6795149f6b09fb5260e31cda","","null","<img id='swapped' src='G_9.jpg' height='90'> <img id='swapped' src='G_5.jpg' height='90'> <img src='G_7.jpg' height='90'> <img src='G_1.jpg' height='90'> <img src='G_3.jpg' height='90'>","null","Animation0"
"","","","","","html-keyboard-response","73","408569","0.0-11.0","38","1","2025-01-25 16:43:21","af8d355d56820e421d246a7037deb6e6","72.48.24.143","Mozilla/5.0 (Windows NT 10.0; Win64; x64) AppleWebKit/537.36 (KHTML, like Gecko) Chrome/131.0.0.0 Safari/537.36","WebKit","Chrome","131.0.0.0","Windows","10.0","https://app.prolific.com/","en-US,en;q=0.9","662e920879f834a69ed53ed3","67949641171f97c04e14fb34","6795149f6b09fb5260e31cda","","null","<img  src='G_9.jpg' height='90'> <img  src='G_5.jpg' height='90'> <img src='G_7.jpg' height='90'> <img src='G_1.jpg' height='90'> <img src='G_3.jpg' height='90'>","null","Animation0"
"","","","","","html-keyboard-response","74","409077","0.0-12.0","38","1","2025-01-25 16:43:21","af8d355d56820e421d246a7037deb6e6","72.48.24.143","Mozilla/5.0 (Windows NT 10.0; Win64; x64) AppleWebKit/537.36 (KHTML, like Gecko) Chrome/131.0.0.0 Safari/537.36","WebKit","Chrome","131.0.0.0","Windows","10.0","https://app.prolific.com/","en-US,en;q=0.9","662e920879f834a69ed53ed3","67949641171f97c04e14fb34","6795149f6b09fb5260e31cda","","null","<img  src='G_9.jpg' height='90'> <img id='selected'  src='G_5.jpg' height='90'> <img src='G_7.jpg' height='90'> <img src='G_1.jpg' height='90'> <img src='G_3.jpg' height='90'>","null","Animation0"
"","","","","","html-keyboard-response","75","409593","0.0-13.0","38","1","2025-01-25 16:43:21","af8d355d56820e421d246a7037deb6e6","72.48.24.143","Mozilla/5.0 (Windows NT 10.0; Win64; x64) AppleWebKit/537.36 (KHTML, like Gecko) Chrome/131.0.0.0 Safari/537.36","WebKit","Chrome","131.0.0.0","Windows","10.0","https://app.prolific.com/","en-US,en;q=0.9","662e920879f834a69ed53ed3","67949641171f97c04e14fb34","6795149f6b09fb5260e31cda","","null","<img  src='G_9.jpg' height='90'> <img id='selected'  src='G_5.jpg' height='90'> <img id='selected' src='G_7.jpg' height='90'> <img src='G_1.jpg' height='90'> <img src='G_3.jpg' height='90'>","null","Animation0"
"","","","","","html-keyboard-response","76","410109","0.0-14.0","38","1","2025-01-25 16:43:21","af8d355d56820e421d246a7037deb6e6","72.48.24.143","Mozilla/5.0 (Windows NT 10.0; Win64; x64) AppleWebKit/537.36 (KHTML, like Gecko) Chrome/131.0.0.0 Safari/537.36","WebKit","Chrome","131.0.0.0","Windows","10.0","https://app.prolific.com/","en-US,en;q=0.9","662e920879f834a69ed53ed3","67949641171f97c04e14fb34","6795149f6b09fb5260e31cda","","null","<img  src='G_9.jpg' height='90'> <img id='selected'  src='G_5.jpg' height='90'> <img id='selected' src='G_7.jpg' height='90'> <img src='G_1.jpg' height='90'> <img src='G_3.jpg' height='90'>","null","Animation0"
"","","","","","html-keyboard-response","77","410424","0.0-15.0","38","1","2025-01-25 16:43:21","af8d355d56820e421d246a7037deb6e6","72.48.24.143","Mozilla/5.0 (Windows NT 10.0; Win64; x64) AppleWebKit/537.36 (KHTML, like Gecko) Chrome/131.0.0.0 Safari/537.36","WebKit","Chrome","131.0.0.0","Windows","10.0","https://app.prolific.com/","en-US,en;q=0.9","662e920879f834a69ed53ed3","67949641171f97c04e14fb34","6795149f6b09fb5260e31cda","","null","<img  src='G_9.jpg' height='90'> <img   src='G_5.jpg' height='90'> <img  src='G_7.jpg' height='90'> <img src='G_1.jpg' height='90'> <img src='G_3.jpg' height='90'>","null","Animation0"
"","","","","","html-keyboard-response","78","410939","0.0-16.0","38","1","2025-01-25 16:43:21","af8d355d56820e421d246a7037deb6e6","72.48.24.143","Mozilla/5.0 (Windows NT 10.0; Win64; x64) AppleWebKit/537.36 (KHTML, like Gecko) Chrome/131.0.0.0 Safari/537.36","WebKit","Chrome","131.0.0.0","Windows","10.0","https://app.prolific.com/","en-US,en;q=0.9","662e920879f834a69ed53ed3","67949641171f97c04e14fb34","6795149f6b09fb5260e31cda","","null","<img  src='G_9.jpg' height='90'> <img   src='G_5.jpg' height='90'> <img id='selected'  src='G_7.jpg' height='90'> <img src='G_1.jpg' height='90'> <img src='G_3.jpg' height='90'>","null","Animation0"
"","","","","","html-keyboard-response","79","411448","0.0-17.0","38","1","2025-01-25 16:43:21","af8d355d56820e421d246a7037deb6e6","72.48.24.143","Mozilla/5.0 (Windows NT 10.0; Win64; x64) AppleWebKit/537.36 (KHTML, like Gecko) Chrome/131.0.0.0 Safari/537.36","WebKit","Chrome","131.0.0.0","Windows","10.0","https://app.prolific.com/","en-US,en;q=0.9","662e920879f834a69ed53ed3","67949641171f97c04e14fb34","6795149f6b09fb5260e31cda","","null","<img  src='G_9.jpg' height='90'> <img   src='G_5.jpg' height='90'> <img id='selected'  src='G_7.jpg' height='90'> <img id='selected' src='G_1.jpg' height='90'> <img src='G_3.jpg' height='90'>","null","Animation0"
"","","","","","html-keyboard-response","80","411956","0.0-18.0","38","1","2025-01-25 16:43:21","af8d355d56820e421d246a7037deb6e6","72.48.24.143","Mozilla/5.0 (Windows NT 10.0; Win64; x64) AppleWebKit/537.36 (KHTML, like Gecko) Chrome/131.0.0.0 Safari/537.36","WebKit","Chrome","131.0.0.0","Windows","10.0","https://app.prolific.com/","en-US,en;q=0.9","662e920879f834a69ed53ed3","67949641171f97c04e14fb34","6795149f6b09fb5260e31cda","","null","<img  src='G_9.jpg' height='90'> <img   src='G_5.jpg' height='90'> <img id='selected'  src='G_7.jpg' height='90'> <img id='selected' src='G_1.jpg' height='90'> <img src='G_3.jpg' height='90'>","null","Animation0"
"","","","","","html-keyboard-response","81","412267","0.0-19.0","38","1","2025-01-25 16:43:21","af8d355d56820e421d246a7037deb6e6","72.48.24.143","Mozilla/5.0 (Windows NT 10.0; Win64; x64) AppleWebKit/537.36 (KHTML, like Gecko) Chrome/131.0.0.0 Safari/537.36","WebKit","Chrome","131.0.0.0","Windows","10.0","https://app.prolific.com/","en-US,en;q=0.9","662e920879f834a69ed53ed3","67949641171f97c04e14fb34","6795149f6b09fb5260e31cda","","null","<img  src='G_9.jpg' height='90'> <img   src='G_5.jpg' height='90'> <img   src='G_7.jpg' height='90'> <img  src='G_1.jpg' height='90'> <img src='G_3.jpg' height='90'>","null","Animation0"
"","","","","","html-keyboard-response","82","412777","0.0-20.0","38","1","2025-01-25 16:43:21","af8d355d56820e421d246a7037deb6e6","72.48.24.143","Mozilla/5.0 (Windows NT 10.0; Win64; x64) AppleWebKit/537.36 (KHTML, like Gecko) Chrome/131.0.0.0 Safari/537.36","WebKit","Chrome","131.0.0.0","Windows","10.0","https://app.prolific.com/","en-US,en;q=0.9","662e920879f834a69ed53ed3","67949641171f97c04e14fb34","6795149f6b09fb5260e31cda","","null","<img  src='G_9.jpg' height='90'> <img   src='G_5.jpg' height='90'> <img   src='G_7.jpg' height='90'> <img id='selected'  src='G_1.jpg' height='90'> <img src='G_3.jpg' height='90'>","null","Animation0"
"","","","","","html-keyboard-response","83","413291","0.0-21.0","38","1","2025-01-25 16:43:21","af8d355d56820e421d246a7037deb6e6","72.48.24.143","Mozilla/5.0 (Windows NT 10.0; Win64; x64) AppleWebKit/537.36 (KHTML, like Gecko) Chrome/131.0.0.0 Safari/537.36","WebKit","Chrome","131.0.0.0","Windows","10.0","https://app.prolific.com/","en-US,en;q=0.9","662e920879f834a69ed53ed3","67949641171f97c04e14fb34","6795149f6b09fb5260e31cda","","null","<img  src='G_9.jpg' height='90'> <img   src='G_5.jpg' height='90'> <img   src='G_7.jpg' height='90'> <img id='selected'  src='G_1.jpg' height='90'> <img id='selected' src='G_3.jpg' height='90'>","null","Animation0"
"","","","","","html-keyboard-response","84","413806","0.0-22.0","38","1","2025-01-25 16:43:21","af8d355d56820e421d246a7037deb6e6","72.48.24.143","Mozilla/5.0 (Windows NT 10.0; Win64; x64) AppleWebKit/537.36 (KHTML, like Gecko) Chrome/131.0.0.0 Safari/537.36","WebKit","Chrome","131.0.0.0","Windows","10.0","https://app.prolific.com/","en-US,en;q=0.9","662e920879f834a69ed53ed3","67949641171f97c04e14fb34","6795149f6b09fb5260e31cda","","null","<img  src='G_9.jpg' height='90'> <img   src='G_5.jpg' height='90'> <img   src='G_7.jpg' height='90'> <img id='selected'  src='G_1.jpg' height='90'> <img id='selected' src='G_3.jpg' height='90'>","null","Animation0"
"","","","","","html-keyboard-response","85","414124","0.0-23.0","38","1","2025-01-25 16:43:21","af8d355d56820e421d246a7037deb6e6","72.48.24.143","Mozilla/5.0 (Windows NT 10.0; Win64; x64) AppleWebKit/537.36 (KHTML, like Gecko) Chrome/131.0.0.0 Safari/537.36","WebKit","Chrome","131.0.0.0","Windows","10.0","https://app.prolific.com/","en-US,en;q=0.9","662e920879f834a69ed53ed3","67949641171f97c04e14fb34","6795149f6b09fb5260e31cda","","null","<img  src='G_9.jpg' height='90'> <img   src='G_5.jpg' height='90'> <img   src='G_7.jpg' height='90'> <img   src='G_1.jpg' height='90'> <img  src='G_3.jpg' height='90'>","null","Animation0"
"","","","","","html-keyboard-response","86","417090","0.0-24.0","38","1","2025-01-25 16:43:21","af8d355d56820e421d246a7037deb6e6","72.48.24.143","Mozilla/5.0 (Windows NT 10.0; Win64; x64) AppleWebKit/537.36 (KHTML, like Gecko) Chrome/131.0.0.0 Safari/537.36","WebKit","Chrome","131.0.0.0","Windows","10.0","https://app.prolific.com/","en-US,en;q=0.9","662e920879f834a69ed53ed3","67949641171f97c04e14fb34","6795149f6b09fb5260e31cda","","2963","[""Did you notice any patterns? <br><br>Press Enter to watch that example again and follow the steps of Omgne Sort.""]","enter",""
"","","","","","html-button-response","87","417495","0.0-25.0","38","1","2025-01-25 16:43:21","af8d355d56820e421d246a7037deb6e6","72.48.24.143","Mozilla/5.0 (Windows NT 10.0; Win64; x64) AppleWebKit/537.36 (KHTML, like Gecko) Chrome/131.0.0.0 Safari/537.36","WebKit","Chrome","131.0.0.0","Windows","10.0","https://app.prolific.com/","en-US,en;q=0.9","662e920879f834a69ed53ed3","67949641171f97c04e14fb34","6795149f6b09fb5260e31cda","","null","<img id='selected' src='G_5.jpg' height='90'> <img src='G_9.jpg' height='90'> <img src='G_7.jpg' height='90'> <img src='G_1.jpg' height='90'> <img src='G_3.jpg' height='90'>","null","Learning example 0"
"","","","","","html-button-response","88","417802","0.0-26.0","38","1","2025-01-25 16:43:21","af8d355d56820e421d246a7037deb6e6","72.48.24.143","Mozilla/5.0 (Windows NT 10.0; Win64; x64) AppleWebKit/537.36 (KHTML, like Gecko) Chrome/131.0.0.0 Safari/537.36","WebKit","Chrome","131.0.0.0","Windows","10.0","https://app.prolific.com/","en-US,en;q=0.9","662e920879f834a69ed53ed3","67949641171f97c04e14fb34","6795149f6b09fb5260e31cda","","null","<img id='selected' src='G_5.jpg' height='90'> <img id='selected' src='G_9.jpg' height='90'> <img src='G_7.jpg' height='90'> <img src='G_1.jpg' height='90'> <img src='G_3.jpg' height='90'>","null","Learning example 0"
"","","","","","html-button-response","89","418114","0.0-27.0","38","1","2025-01-25 16:43:21","af8d355d56820e421d246a7037deb6e6","72.48.24.143","Mozilla/5.0 (Windows NT 10.0; Win64; x64) AppleWebKit/537.36 (KHTML, like Gecko) Chrome/131.0.0.0 Safari/537.36","WebKit","Chrome","131.0.0.0","Windows","10.0","https://app.prolific.com/","en-US,en;q=0.9","662e920879f834a69ed53ed3","67949641171f97c04e14fb34","6795149f6b09fb5260e31cda","","null","<img id='swapped' src='G_9.jpg' height='90'> <img id='swapped' src='G_5.jpg' height='90'> <img src='G_7.jpg' height='90'> <img src='G_1.jpg' height='90'> <img src='G_3.jpg' height='90'>","null","Learning example 0"
"","","","","","html-button-response","90","554658","0.0-28.0-0.0-0.0","38","1","2025-01-25 16:43:21","af8d355d56820e421d246a7037deb6e6","72.48.24.143","Mozilla/5.0 (Windows NT 10.0; Win64; x64) AppleWebKit/537.36 (KHTML, like Gecko) Chrome/131.0.0.0 Safari/537.36","WebKit","Chrome","131.0.0.0","Windows","10.0","https://app.prolific.com/","en-US,en;q=0.9","662e920879f834a69ed53ed3","67949641171f97c04e14fb34","6795149f6b09fb5260e31cda","","136539","<img id='swapped' src='G_9.jpg' height='90'> <img id='swapped' src='G_5.jpg' height='90'> <img src='G_7.jpg' height='90'> <img src='G_1.jpg' height='90'> <img src='G_3.jpg' height='90'>","3","Learning example 0"
"","","","","","html-button-response","91","555461","0.0-28.1-0.1-0.1","38","1","2025-01-25 16:43:21","af8d355d56820e421d246a7037deb6e6","72.48.24.143","Mozilla/5.0 (Windows NT 10.0; Win64; x64) AppleWebKit/537.36 (KHTML, like Gecko) Chrome/131.0.0.0 Safari/537.36","WebKit","Chrome","131.0.0.0","Windows","10.0","https://app.prolific.com/","en-US,en;q=0.9","662e920879f834a69ed53ed3","67949641171f97c04e14fb34","6795149f6b09fb5260e31cda","","799","<img id='swapped' src='G_9.jpg' height='90'> <img id='swapped' src='G_5.jpg' height='90'> <img src='G_7.jpg' height='90'> <img src='G_1.jpg' height='90'> <img src='G_3.jpg' height='90'>","4","Learning example 0"
"","","","","","html-button-response","92","556501","0.0-28.2-0.2-0.2","38","1","2025-01-25 16:43:21","af8d355d56820e421d246a7037deb6e6","72.48.24.143","Mozilla/5.0 (Windows NT 10.0; Win64; x64) AppleWebKit/537.36 (KHTML, like Gecko) Chrome/131.0.0.0 Safari/537.36","WebKit","Chrome","131.0.0.0","Windows","10.0","https://app.prolific.com/","en-US,en;q=0.9","662e920879f834a69ed53ed3","67949641171f97c04e14fb34","6795149f6b09fb5260e31cda","","1036","<img id='swapped' src='G_9.jpg' height='90'> <img id='swapped' src='G_5.jpg' height='90'> <img src='G_7.jpg' height='90'> <img src='G_1.jpg' height='90'> <img src='G_3.jpg' height='90'>","4","Learning example 0"
"","","","","","html-button-response","93","557142","0.0-28.3-0.3-0.3","38","1","2025-01-25 16:43:21","af8d355d56820e421d246a7037deb6e6","72.48.24.143","Mozilla/5.0 (Windows NT 10.0; Win64; x64) AppleWebKit/537.36 (KHTML, like Gecko) Chrome/131.0.0.0 Safari/537.36","WebKit","Chrome","131.0.0.0","Windows","10.0","https://app.prolific.com/","en-US,en;q=0.9","662e920879f834a69ed53ed3","67949641171f97c04e14fb34","6795149f6b09fb5260e31cda","","636","<img id='swapped' src='G_9.jpg' height='90'> <img id='swapped' src='G_5.jpg' height='90'> <img src='G_7.jpg' height='90'> <img src='G_1.jpg' height='90'> <img src='G_3.jpg' height='90'>","3","Learning example 0"
"","","","","","html-button-response","94","558942","0.0-28.4-0.4-0.4","38","1","2025-01-25 16:43:21","af8d355d56820e421d246a7037deb6e6","72.48.24.143","Mozilla/5.0 (Windows NT 10.0; Win64; x64) AppleWebKit/537.36 (KHTML, like Gecko) Chrome/131.0.0.0 Safari/537.36","WebKit","Chrome","131.0.0.0","Windows","10.0","https://app.prolific.com/","en-US,en;q=0.9","662e920879f834a69ed53ed3","67949641171f97c04e14fb34","6795149f6b09fb5260e31cda","","1797","<img id='swapped' src='G_9.jpg' height='90'> <img id='swapped' src='G_5.jpg' height='90'> <img src='G_7.jpg' height='90'> <img src='G_1.jpg' height='90'> <img src='G_3.jpg' height='90'>","0","Learning example 0"
"","","","","","html-button-response","95","559561","0.0-28.5-0.5-0.5","38","1","2025-01-25 16:43:21","af8d355d56820e421d246a7037deb6e6","72.48.24.143","Mozilla/5.0 (Windows NT 10.0; Win64; x64) AppleWebKit/537.36 (KHTML, like Gecko) Chrome/131.0.0.0 Safari/537.36","WebKit","Chrome","131.0.0.0","Windows","10.0","https://app.prolific.com/","en-US,en;q=0.9","662e920879f834a69ed53ed3","67949641171f97c04e14fb34","6795149f6b09fb5260e31cda","","615","<img id='swapped' src='G_9.jpg' height='90'> <img id='swapped' src='G_5.jpg' height='90'> <img src='G_7.jpg' height='90'> <img src='G_1.jpg' height='90'> <img src='G_3.jpg' height='90'>","1","Learning example 0"
"","","","","","html-button-response","96","559773","0.0-29.0","38","1","2025-01-25 16:43:21","af8d355d56820e421d246a7037deb6e6","72.48.24.143","Mozilla/5.0 (Windows NT 10.0; Win64; x64) AppleWebKit/537.36 (KHTML, like Gecko) Chrome/131.0.0.0 Safari/537.36","WebKit","Chrome","131.0.0.0","Windows","10.0","https://app.prolific.com/","en-US,en;q=0.9","662e920879f834a69ed53ed3","67949641171f97c04e14fb34","6795149f6b09fb5260e31cda","","null","<img  src='G_9.jpg' height='90'> <img  src='G_5.jpg' height='90'> <img src='G_7.jpg' height='90'> <img src='G_1.jpg' height='90'> <img src='G_3.jpg' height='90'>","null","Learning example 0"
"","","","","","html-button-response","97","560190","0.0-30.0","38","1","2025-01-25 16:43:21","af8d355d56820e421d246a7037deb6e6","72.48.24.143","Mozilla/5.0 (Windows NT 10.0; Win64; x64) AppleWebKit/537.36 (KHTML, like Gecko) Chrome/131.0.0.0 Safari/537.36","WebKit","Chrome","131.0.0.0","Windows","10.0","https://app.prolific.com/","en-US,en;q=0.9","662e920879f834a69ed53ed3","67949641171f97c04e14fb34","6795149f6b09fb5260e31cda","","null","<img  src='G_9.jpg' height='90'> <img id='selected'  src='G_5.jpg' height='90'> <img src='G_7.jpg' height='90'> <img src='G_1.jpg' height='90'> <img src='G_3.jpg' height='90'>","null","Learning example 0"
"","","","","","html-button-response","98","560503","0.0-31.0","38","1","2025-01-25 16:43:21","af8d355d56820e421d246a7037deb6e6","72.48.24.143","Mozilla/5.0 (Windows NT 10.0; Win64; x64) AppleWebKit/537.36 (KHTML, like Gecko) Chrome/131.0.0.0 Safari/537.36","WebKit","Chrome","131.0.0.0","Windows","10.0","https://app.prolific.com/","en-US,en;q=0.9","662e920879f834a69ed53ed3","67949641171f97c04e14fb34","6795149f6b09fb5260e31cda","","null","<img  src='G_9.jpg' height='90'> <img id='selected'  src='G_5.jpg' height='90'> <img id='selected' src='G_7.jpg' height='90'> <img src='G_1.jpg' height='90'> <img src='G_3.jpg' height='90'>","null","Learning example 0"
"","","","","","html-button-response","99","560809","0.0-32.0","38","1","2025-01-25 16:43:21","af8d355d56820e421d246a7037deb6e6","72.48.24.143","Mozilla/5.0 (Windows NT 10.0; Win64; x64) AppleWebKit/537.36 (KHTML, like Gecko) Chrome/131.0.0.0 Safari/537.36","WebKit","Chrome","131.0.0.0","Windows","10.0","https://app.prolific.com/","en-US,en;q=0.9","662e920879f834a69ed53ed3","67949641171f97c04e14fb34","6795149f6b09fb5260e31cda","","null","<img  src='G_9.jpg' height='90'> <img id='selected'  src='G_5.jpg' height='90'> <img id='selected' src='G_7.jpg' height='90'> <img src='G_1.jpg' height='90'> <img src='G_3.jpg' height='90'>","null","Learning example 0"
"","","","","","html-button-response","100","616453","0.0-33.0-0.0-0.0","38","1","2025-01-25 16:43:21","af8d355d56820e421d246a7037deb6e6","72.48.24.143","Mozilla/5.0 (Windows NT 10.0; Win64; x64) AppleWebKit/537.36 (KHTML, like Gecko) Chrome/131.0.0.0 Safari/537.36","WebKit","Chrome","131.0.0.0","Windows","10.0","https://app.prolific.com/","en-US,en;q=0.9","662e920879f834a69ed53ed3","67949641171f97c04e14fb34","6795149f6b09fb5260e31cda","","55640","<img  src='G_9.jpg' height='90'> <img id='selected'  src='G_5.jpg' height='90'> <img id='selected' src='G_7.jpg' height='90'> <img src='G_1.jpg' height='90'> <img src='G_3.jpg' height='90'>","2","Learning example 0"
"","","","","","html-button-response","101","618533","0.0-33.1-0.1-0.1","38","1","2025-01-25 16:43:21","af8d355d56820e421d246a7037deb6e6","72.48.24.143","Mozilla/5.0 (Windows NT 10.0; Win64; x64) AppleWebKit/537.36 (KHTML, like Gecko) Chrome/131.0.0.0 Safari/537.36","WebKit","Chrome","131.0.0.0","Windows","10.0","https://app.prolific.com/","en-US,en;q=0.9","662e920879f834a69ed53ed3","67949641171f97c04e14fb34","6795149f6b09fb5260e31cda","","2075","<img  src='G_9.jpg' height='90'> <img id='selected'  src='G_5.jpg' height='90'> <img id='selected' src='G_7.jpg' height='90'> <img src='G_1.jpg' height='90'> <img src='G_3.jpg' height='90'>","1","Learning example 0"
"","","","","","html-button-response","102","618748","0.0-34.0","38","1","2025-01-25 16:43:21","af8d355d56820e421d246a7037deb6e6","72.48.24.143","Mozilla/5.0 (Windows NT 10.0; Win64; x64) AppleWebKit/537.36 (KHTML, like Gecko) Chrome/131.0.0.0 Safari/537.36","WebKit","Chrome","131.0.0.0","Windows","10.0","https://app.prolific.com/","en-US,en;q=0.9","662e920879f834a69ed53ed3","67949641171f97c04e14fb34","6795149f6b09fb5260e31cda","","null","<img  src='G_9.jpg' height='90'> <img   src='G_5.jpg' height='90'> <img  src='G_7.jpg' height='90'> <img src='G_1.jpg' height='90'> <img src='G_3.jpg' height='90'>","null","Learning example 0"
"","","","","","html-button-response","103","619164","0.0-35.0","38","1","2025-01-25 16:43:21","af8d355d56820e421d246a7037deb6e6","72.48.24.143","Mozilla/5.0 (Windows NT 10.0; Win64; x64) AppleWebKit/537.36 (KHTML, like Gecko) Chrome/131.0.0.0 Safari/537.36","WebKit","Chrome","131.0.0.0","Windows","10.0","https://app.prolific.com/","en-US,en;q=0.9","662e920879f834a69ed53ed3","67949641171f97c04e14fb34","6795149f6b09fb5260e31cda","","null","<img  src='G_9.jpg' height='90'> <img   src='G_5.jpg' height='90'> <img id='selected'  src='G_7.jpg' height='90'> <img src='G_1.jpg' height='90'> <img src='G_3.jpg' height='90'>","null","Learning example 0"
"","","","","","html-button-response","104","619473","0.0-36.0","38","1","2025-01-25 16:43:21","af8d355d56820e421d246a7037deb6e6","72.48.24.143","Mozilla/5.0 (Windows NT 10.0; Win64; x64) AppleWebKit/537.36 (KHTML, like Gecko) Chrome/131.0.0.0 Safari/537.36","WebKit","Chrome","131.0.0.0","Windows","10.0","https://app.prolific.com/","en-US,en;q=0.9","662e920879f834a69ed53ed3","67949641171f97c04e14fb34","6795149f6b09fb5260e31cda","","null","<img  src='G_9.jpg' height='90'> <img   src='G_5.jpg' height='90'> <img id='selected'  src='G_7.jpg' height='90'> <img id='selected' src='G_1.jpg' height='90'> <img src='G_3.jpg' height='90'>","null","Learning example 0"
"","","","","","html-button-response","105","619792","0.0-37.0","38","1","2025-01-25 16:43:21","af8d355d56820e421d246a7037deb6e6","72.48.24.143","Mozilla/5.0 (Windows NT 10.0; Win64; x64) AppleWebKit/537.36 (KHTML, like Gecko) Chrome/131.0.0.0 Safari/537.36","WebKit","Chrome","131.0.0.0","Windows","10.0","https://app.prolific.com/","en-US,en;q=0.9","662e920879f834a69ed53ed3","67949641171f97c04e14fb34","6795149f6b09fb5260e31cda","","null","<img  src='G_9.jpg' height='90'> <img   src='G_5.jpg' height='90'> <img id='selected'  src='G_7.jpg' height='90'> <img id='selected' src='G_1.jpg' height='90'> <img src='G_3.jpg' height='90'>","null","Learning example 0"
"","","","","","html-button-response","106","625237","0.0-38.0-0.0-0.0","38","1","2025-01-25 16:43:21","af8d355d56820e421d246a7037deb6e6","72.48.24.143","Mozilla/5.0 (Windows NT 10.0; Win64; x64) AppleWebKit/537.36 (KHTML, like Gecko) Chrome/131.0.0.0 Safari/537.36","WebKit","Chrome","131.0.0.0","Windows","10.0","https://app.prolific.com/","en-US,en;q=0.9","662e920879f834a69ed53ed3","67949641171f97c04e14fb34","6795149f6b09fb5260e31cda","","5441","<img  src='G_9.jpg' height='90'> <img   src='G_5.jpg' height='90'> <img id='selected'  src='G_7.jpg' height='90'> <img id='selected' src='G_1.jpg' height='90'> <img src='G_3.jpg' height='90'>","3","Learning example 0"
"","","","","","html-button-response","107","626245","0.0-38.1-0.1-0.1","38","1","2025-01-25 16:43:21","af8d355d56820e421d246a7037deb6e6","72.48.24.143","Mozilla/5.0 (Windows NT 10.0; Win64; x64) AppleWebKit/537.36 (KHTML, like Gecko) Chrome/131.0.0.0 Safari/537.36","WebKit","Chrome","131.0.0.0","Windows","10.0","https://app.prolific.com/","en-US,en;q=0.9","662e920879f834a69ed53ed3","67949641171f97c04e14fb34","6795149f6b09fb5260e31cda","","1003","<img  src='G_9.jpg' height='90'> <img   src='G_5.jpg' height='90'> <img id='selected'  src='G_7.jpg' height='90'> <img id='selected' src='G_1.jpg' height='90'> <img src='G_3.jpg' height='90'>","2","Learning example 0"
"","","","","","html-button-response","108","626463","0.0-39.0","38","1","2025-01-25 16:43:21","af8d355d56820e421d246a7037deb6e6","72.48.24.143","Mozilla/5.0 (Windows NT 10.0; Win64; x64) AppleWebKit/537.36 (KHTML, like Gecko) Chrome/131.0.0.0 Safari/537.36","WebKit","Chrome","131.0.0.0","Windows","10.0","https://app.prolific.com/","en-US,en;q=0.9","662e920879f834a69ed53ed3","67949641171f97c04e14fb34","6795149f6b09fb5260e31cda","","null","<img  src='G_9.jpg' height='90'> <img   src='G_5.jpg' height='90'> <img   src='G_7.jpg' height='90'> <img  src='G_1.jpg' height='90'> <img src='G_3.jpg' height='90'>","null","Learning example 0"
"","","","","","html-button-response","109","626867","0.0-40.0","38","1","2025-01-25 16:43:21","af8d355d56820e421d246a7037deb6e6","72.48.24.143","Mozilla/5.0 (Windows NT 10.0; Win64; x64) AppleWebKit/537.36 (KHTML, like Gecko) Chrome/131.0.0.0 Safari/537.36","WebKit","Chrome","131.0.0.0","Windows","10.0","https://app.prolific.com/","en-US,en;q=0.9","662e920879f834a69ed53ed3","67949641171f97c04e14fb34","6795149f6b09fb5260e31cda","","null","<img  src='G_9.jpg' height='90'> <img   src='G_5.jpg' height='90'> <img   src='G_7.jpg' height='90'> <img id='selected'  src='G_1.jpg' height='90'> <img src='G_3.jpg' height='90'>","null","Learning example 0"
"","","","","","html-button-response","110","627171","0.0-41.0","38","1","2025-01-25 16:43:21","af8d355d56820e421d246a7037deb6e6","72.48.24.143","Mozilla/5.0 (Windows NT 10.0; Win64; x64) AppleWebKit/537.36 (KHTML, like Gecko) Chrome/131.0.0.0 Safari/537.36","WebKit","Chrome","131.0.0.0","Windows","10.0","https://app.prolific.com/","en-US,en;q=0.9","662e920879f834a69ed53ed3","67949641171f97c04e14fb34","6795149f6b09fb5260e31cda","","null","<img  src='G_9.jpg' height='90'> <img   src='G_5.jpg' height='90'> <img   src='G_7.jpg' height='90'> <img id='selected'  src='G_1.jpg' height='90'> <img id='selected' src='G_3.jpg' height='90'>","null","Learning example 0"
"","","","","","html-button-response","111","627477","0.0-42.0","38","1","2025-01-25 16:43:21","af8d355d56820e421d246a7037deb6e6","72.48.24.143","Mozilla/5.0 (Windows NT 10.0; Win64; x64) AppleWebKit/537.36 (KHTML, like Gecko) Chrome/131.0.0.0 Safari/537.36","WebKit","Chrome","131.0.0.0","Windows","10.0","https://app.prolific.com/","en-US,en;q=0.9","662e920879f834a69ed53ed3","67949641171f97c04e14fb34","6795149f6b09fb5260e31cda","","null","<img  src='G_9.jpg' height='90'> <img   src='G_5.jpg' height='90'> <img   src='G_7.jpg' height='90'> <img id='selected'  src='G_1.jpg' height='90'> <img id='selected' src='G_3.jpg' height='90'>","null","Learning example 0"
"","","","","","html-button-response","112","629277","0.0-43.0-0.0-0.0","38","1","2025-01-25 16:43:21","af8d355d56820e421d246a7037deb6e6","72.48.24.143","Mozilla/5.0 (Windows NT 10.0; Win64; x64) AppleWebKit/537.36 (KHTML, like Gecko) Chrome/131.0.0.0 Safari/537.36","WebKit","Chrome","131.0.0.0","Windows","10.0","https://app.prolific.com/","en-US,en;q=0.9","662e920879f834a69ed53ed3","67949641171f97c04e14fb34","6795149f6b09fb5260e31cda","","1796","<img  src='G_9.jpg' height='90'> <img   src='G_5.jpg' height='90'> <img   src='G_7.jpg' height='90'> <img id='selected'  src='G_1.jpg' height='90'> <img id='selected' src='G_3.jpg' height='90'>","4","Learning example 0"
"","","","","","html-button-response","113","629957","0.0-43.1-0.1-0.1","38","1","2025-01-25 16:43:21","af8d355d56820e421d246a7037deb6e6","72.48.24.143","Mozilla/5.0 (Windows NT 10.0; Win64; x64) AppleWebKit/537.36 (KHTML, like Gecko) Chrome/131.0.0.0 Safari/537.36","WebKit","Chrome","131.0.0.0","Windows","10.0","https://app.prolific.com/","en-US,en;q=0.9","662e920879f834a69ed53ed3","67949641171f97c04e14fb34","6795149f6b09fb5260e31cda","","675","<img  src='G_9.jpg' height='90'> <img   src='G_5.jpg' height='90'> <img   src='G_7.jpg' height='90'> <img id='selected'  src='G_1.jpg' height='90'> <img id='selected' src='G_3.jpg' height='90'>","3","Learning example 0"
"","","","","","html-button-response","114","630161","0.0-44.0","38","1","2025-01-25 16:43:21","af8d355d56820e421d246a7037deb6e6","72.48.24.143","Mozilla/5.0 (Windows NT 10.0; Win64; x64) AppleWebKit/537.36 (KHTML, like Gecko) Chrome/131.0.0.0 Safari/537.36","WebKit","Chrome","131.0.0.0","Windows","10.0","https://app.prolific.com/","en-US,en;q=0.9","662e920879f834a69ed53ed3","67949641171f97c04e14fb34","6795149f6b09fb5260e31cda","","null","<img  src='G_9.jpg' height='90'> <img   src='G_5.jpg' height='90'> <img   src='G_7.jpg' height='90'> <img   src='G_1.jpg' height='90'> <img  src='G_3.jpg' height='90'>","null","Learning example 0"
"","","","","","html-keyboard-response","115","637377","0.0-45.0","38","1","2025-01-25 16:43:21","af8d355d56820e421d246a7037deb6e6","72.48.24.143","Mozilla/5.0 (Windows NT 10.0; Win64; x64) AppleWebKit/537.36 (KHTML, like Gecko) Chrome/131.0.0.0 Safari/537.36","WebKit","Chrome","131.0.0.0","Windows","10.0","https://app.prolific.com/","en-US,en;q=0.9","662e920879f834a69ed53ed3","67949641171f97c04e14fb34","6795149f6b09fb5260e31cda","","7212","[""Final order was 1,2,3,4,5. The initial order was 2,1,3,4,5.<br>It took 1 swaps to sort it correctly with Omgne Sort. <br><br>Press Enter to continue.""]","enter",""
"","","","","","html-keyboard-response","116","640632","0.0-46.0","38","1","2025-01-25 16:43:21","af8d355d56820e421d246a7037deb6e6","72.48.24.143","Mozilla/5.0 (Windows NT 10.0; Win64; x64) AppleWebKit/537.36 (KHTML, like Gecko) Chrome/131.0.0.0 Safari/537.36","WebKit","Chrome","131.0.0.0","Windows","10.0","https://app.prolific.com/","en-US,en;q=0.9","662e920879f834a69ed53ed3","67949641171f97c04e14fb34","6795149f6b09fb5260e31cda","","3252","[""Example 2<br><br>You will watch Omnge Sort in action. Try to identify any patterns in the comparisons made by this method. <br><br>Press Enter to continue.""]","enter",""
"","","","","","html-keyboard-response","117","641147","0.0-47.0","38","1","2025-01-25 16:43:21","af8d355d56820e421d246a7037deb6e6","72.48.24.143","Mozilla/5.0 (Windows NT 10.0; Win64; x64) AppleWebKit/537.36 (KHTML, like Gecko) Chrome/131.0.0.0 Safari/537.36","WebKit","Chrome","131.0.0.0","Windows","10.0","https://app.prolific.com/","en-US,en;q=0.9","662e920879f834a69ed53ed3","67949641171f97c04e14fb34","6795149f6b09fb5260e31cda","","null","<img id='selected' src='G_8.jpg' height='90'> <img src='G_4.jpg' height='90'> <img src='G_6.jpg' height='90'> <img src='G_1.jpg' height='90'> <img src='G_3.jpg' height='90'> <img src='G_7.jpg' height='90'> <img src='G_5.jpg' height='90'> <img src='G_2.jpg' height='90'>","null","Animation1"
"","","","","","html-keyboard-response","118","641659","0.0-48.0","38","1","2025-01-25 16:43:21","af8d355d56820e421d246a7037deb6e6","72.48.24.143","Mozilla/5.0 (Windows NT 10.0; Win64; x64) AppleWebKit/537.36 (KHTML, like Gecko) Chrome/131.0.0.0 Safari/537.36","WebKit","Chrome","131.0.0.0","Windows","10.0","https://app.prolific.com/","en-US,en;q=0.9","662e920879f834a69ed53ed3","67949641171f97c04e14fb34","6795149f6b09fb5260e31cda","","null","<img id='selected' src='G_8.jpg' height='90'> <img id='selected' src='G_4.jpg' height='90'> <img src='G_6.jpg' height='90'> <img src='G_1.jpg' height='90'> <img src='G_3.jpg' height='90'> <img src='G_7.jpg' height='90'> <img src='G_5.jpg' height='90'> <img src='G_2.jpg' height='90'>","null","Animation1"
"","","","","","html-keyboard-response","119","642177","0.0-49.0","38","1","2025-01-25 16:43:21","af8d355d56820e421d246a7037deb6e6","72.48.24.143","Mozilla/5.0 (Windows NT 10.0; Win64; x64) AppleWebKit/537.36 (KHTML, like Gecko) Chrome/131.0.0.0 Safari/537.36","WebKit","Chrome","131.0.0.0","Windows","10.0","https://app.prolific.com/","en-US,en;q=0.9","662e920879f834a69ed53ed3","67949641171f97c04e14fb34","6795149f6b09fb5260e31cda","","null","<img id='selected' src='G_8.jpg' height='90'> <img id='selected' src='G_4.jpg' height='90'> <img src='G_6.jpg' height='90'> <img src='G_1.jpg' height='90'> <img src='G_3.jpg' height='90'> <img src='G_7.jpg' height='90'> <img src='G_5.jpg' height='90'> <img src='G_2.jpg' height='90'>","null","Animation1"
"","","","","","html-keyboard-response","120","642487","0.0-50.0","38","1","2025-01-25 16:43:21","af8d355d56820e421d246a7037deb6e6","72.48.24.143","Mozilla/5.0 (Windows NT 10.0; Win64; x64) AppleWebKit/537.36 (KHTML, like Gecko) Chrome/131.0.0.0 Safari/537.36","WebKit","Chrome","131.0.0.0","Windows","10.0","https://app.prolific.com/","en-US,en;q=0.9","662e920879f834a69ed53ed3","67949641171f97c04e14fb34","6795149f6b09fb5260e31cda","","null","<img  src='G_8.jpg' height='90'> <img  src='G_4.jpg' height='90'> <img src='G_6.jpg' height='90'> <img src='G_1.jpg' height='90'> <img src='G_3.jpg' height='90'> <img src='G_7.jpg' height='90'> <img src='G_5.jpg' height='90'> <img src='G_2.jpg' height='90'>","null","Animation1"
"","","","","","html-keyboard-response","121","643002","0.0-51.0","38","1","2025-01-25 16:43:21","af8d355d56820e421d246a7037deb6e6","72.48.24.143","Mozilla/5.0 (Windows NT 10.0; Win64; x64) AppleWebKit/537.36 (KHTML, like Gecko) Chrome/131.0.0.0 Safari/537.36","WebKit","Chrome","131.0.0.0","Windows","10.0","https://app.prolific.com/","en-US,en;q=0.9","662e920879f834a69ed53ed3","67949641171f97c04e14fb34","6795149f6b09fb5260e31cda","","null","<img  src='G_8.jpg' height='90'> <img id='selected'  src='G_4.jpg' height='90'> <img src='G_6.jpg' height='90'> <img src='G_1.jpg' height='90'> <img src='G_3.jpg' height='90'> <img src='G_7.jpg' height='90'> <img src='G_5.jpg' height='90'> <img src='G_2.jpg' height='90'>","null","Animation1"
"","","","","","html-keyboard-response","122","643512","0.0-52.0","38","1","2025-01-25 16:43:21","af8d355d56820e421d246a7037deb6e6","72.48.24.143","Mozilla/5.0 (Windows NT 10.0; Win64; x64) AppleWebKit/537.36 (KHTML, like Gecko) Chrome/131.0.0.0 Safari/537.36","WebKit","Chrome","131.0.0.0","Windows","10.0","https://app.prolific.com/","en-US,en;q=0.9","662e920879f834a69ed53ed3","67949641171f97c04e14fb34","6795149f6b09fb5260e31cda","","null","<img  src='G_8.jpg' height='90'> <img id='selected'  src='G_4.jpg' height='90'> <img id='selected' src='G_6.jpg' height='90'> <img src='G_1.jpg' height='90'> <img src='G_3.jpg' height='90'> <img src='G_7.jpg' height='90'> <img src='G_5.jpg' height='90'> <img src='G_2.jpg' height='90'>","null","Animation1"
"","","","","","html-keyboard-response","123","644026","0.0-53.0","38","1","2025-01-25 16:43:21","af8d355d56820e421d246a7037deb6e6","72.48.24.143","Mozilla/5.0 (Windows NT 10.0; Win64; x64) AppleWebKit/537.36 (KHTML, like Gecko) Chrome/131.0.0.0 Safari/537.36","WebKit","Chrome","131.0.0.0","Windows","10.0","https://app.prolific.com/","en-US,en;q=0.9","662e920879f834a69ed53ed3","67949641171f97c04e14fb34","6795149f6b09fb5260e31cda","","null","<img  src='G_8.jpg' height='90'> <img id='swapped' src='G_6.jpg' height='90'> <img id='swapped'  src='G_4.jpg' height='90'> <img src='G_1.jpg' height='90'> <img src='G_3.jpg' height='90'> <img src='G_7.jpg' height='90'> <img src='G_5.jpg' height='90'> <img src='G_2.jpg' height='90'>","null","Animation1"
"","","","","","html-keyboard-response","124","644337","0.0-54.0","38","1","2025-01-25 16:43:21","af8d355d56820e421d246a7037deb6e6","72.48.24.143","Mozilla/5.0 (Windows NT 10.0; Win64; x64) AppleWebKit/537.36 (KHTML, like Gecko) Chrome/131.0.0.0 Safari/537.36","WebKit","Chrome","131.0.0.0","Windows","10.0","https://app.prolific.com/","en-US,en;q=0.9","662e920879f834a69ed53ed3","67949641171f97c04e14fb34","6795149f6b09fb5260e31cda","","null","<img  src='G_8.jpg' height='90'> <img  src='G_6.jpg' height='90'> <img   src='G_4.jpg' height='90'> <img src='G_1.jpg' height='90'> <img src='G_3.jpg' height='90'> <img src='G_7.jpg' height='90'> <img src='G_5.jpg' height='90'> <img src='G_2.jpg' height='90'>","null","Animation1"
"","","","","","html-keyboard-response","125","644845","0.0-55.0","38","1","2025-01-25 16:43:21","af8d355d56820e421d246a7037deb6e6","72.48.24.143","Mozilla/5.0 (Windows NT 10.0; Win64; x64) AppleWebKit/537.36 (KHTML, like Gecko) Chrome/131.0.0.0 Safari/537.36","WebKit","Chrome","131.0.0.0","Windows","10.0","https://app.prolific.com/","en-US,en;q=0.9","662e920879f834a69ed53ed3","67949641171f97c04e14fb34","6795149f6b09fb5260e31cda","","null","<img id='selected'  src='G_8.jpg' height='90'> <img  src='G_6.jpg' height='90'> <img   src='G_4.jpg' height='90'> <img src='G_1.jpg' height='90'> <img src='G_3.jpg' height='90'> <img src='G_7.jpg' height='90'> <img src='G_5.jpg' height='90'> <img src='G_2.jpg' height='90'>","null","Animation1"
"","","","","","html-keyboard-response","126","645359","0.0-56.0","38","1","2025-01-25 16:43:21","af8d355d56820e421d246a7037deb6e6","72.48.24.143","Mozilla/5.0 (Windows NT 10.0; Win64; x64) AppleWebKit/537.36 (KHTML, like Gecko) Chrome/131.0.0.0 Safari/537.36","WebKit","Chrome","131.0.0.0","Windows","10.0","https://app.prolific.com/","en-US,en;q=0.9","662e920879f834a69ed53ed3","67949641171f97c04e14fb34","6795149f6b09fb5260e31cda","","null","<img id='selected'  src='G_8.jpg' height='90'> <img id='selected'  src='G_6.jpg' height='90'> <img   src='G_4.jpg' height='90'> <img src='G_1.jpg' height='90'> <img src='G_3.jpg' height='90'> <img src='G_7.jpg' height='90'> <img src='G_5.jpg' height='90'> <img src='G_2.jpg' height='90'>","null","Animation1"
"","","","","","html-keyboard-response","127","645877","0.0-57.0","38","1","2025-01-25 16:43:21","af8d355d56820e421d246a7037deb6e6","72.48.24.143","Mozilla/5.0 (Windows NT 10.0; Win64; x64) AppleWebKit/537.36 (KHTML, like Gecko) Chrome/131.0.0.0 Safari/537.36","WebKit","Chrome","131.0.0.0","Windows","10.0","https://app.prolific.com/","en-US,en;q=0.9","662e920879f834a69ed53ed3","67949641171f97c04e14fb34","6795149f6b09fb5260e31cda","","null","<img id='swapped'  src='G_6.jpg' height='90'> <img id='swapped'  src='G_8.jpg' height='90'> <img   src='G_4.jpg' height='90'> <img src='G_1.jpg' height='90'> <img src='G_3.jpg' height='90'> <img src='G_7.jpg' height='90'> <img src='G_5.jpg' height='90'> <img src='G_2.jpg' height='90'>","null","Animation1"
"","","","","","html-keyboard-response","128","646186","0.0-58.0","38","1","2025-01-25 16:43:21","af8d355d56820e421d246a7037deb6e6","72.48.24.143","Mozilla/5.0 (Windows NT 10.0; Win64; x64) AppleWebKit/537.36 (KHTML, like Gecko) Chrome/131.0.0.0 Safari/537.36","WebKit","Chrome","131.0.0.0","Windows","10.0","https://app.prolific.com/","en-US,en;q=0.9","662e920879f834a69ed53ed3","67949641171f97c04e14fb34","6795149f6b09fb5260e31cda","","null","<img   src='G_6.jpg' height='90'> <img   src='G_8.jpg' height='90'> <img   src='G_4.jpg' height='90'> <img src='G_1.jpg' height='90'> <img src='G_3.jpg' height='90'> <img src='G_7.jpg' height='90'> <img src='G_5.jpg' height='90'> <img src='G_2.jpg' height='90'>","null","Animation1"
"","","","","","html-keyboard-response","129","646693","0.0-59.0","38","1","2025-01-25 16:43:21","af8d355d56820e421d246a7037deb6e6","72.48.24.143","Mozilla/5.0 (Windows NT 10.0; Win64; x64) AppleWebKit/537.36 (KHTML, like Gecko) Chrome/131.0.0.0 Safari/537.36","WebKit","Chrome","131.0.0.0","Windows","10.0","https://app.prolific.com/","en-US,en;q=0.9","662e920879f834a69ed53ed3","67949641171f97c04e14fb34","6795149f6b09fb5260e31cda","","null","<img   src='G_6.jpg' height='90'> <img   src='G_8.jpg' height='90'> <img id='selected'   src='G_4.jpg' height='90'> <img src='G_1.jpg' height='90'> <img src='G_3.jpg' height='90'> <img src='G_7.jpg' height='90'> <img src='G_5.jpg' height='90'> <img src='G_2.jpg' height='90'>","null","Animation1"
"","","","","","html-keyboard-response","130","647213","0.0-60.0","38","1","2025-01-25 16:43:21","af8d355d56820e421d246a7037deb6e6","72.48.24.143","Mozilla/5.0 (Windows NT 10.0; Win64; x64) AppleWebKit/537.36 (KHTML, like Gecko) Chrome/131.0.0.0 Safari/537.36","WebKit","Chrome","131.0.0.0","Windows","10.0","https://app.prolific.com/","en-US,en;q=0.9","662e920879f834a69ed53ed3","67949641171f97c04e14fb34","6795149f6b09fb5260e31cda","","null","<img   src='G_6.jpg' height='90'> <img   src='G_8.jpg' height='90'> <img id='selected'   src='G_4.jpg' height='90'> <img id='selected' src='G_1.jpg' height='90'> <img src='G_3.jpg' height='90'> <img src='G_7.jpg' height='90'> <img src='G_5.jpg' height='90'> <img src='G_2.jpg' height='90'>","null","Animation1"
"","","","","","html-keyboard-response","131","647728","0.0-61.0","38","1","2025-01-25 16:43:21","af8d355d56820e421d246a7037deb6e6","72.48.24.143","Mozilla/5.0 (Windows NT 10.0; Win64; x64) AppleWebKit/537.36 (KHTML, like Gecko) Chrome/131.0.0.0 Safari/537.36","WebKit","Chrome","131.0.0.0","Windows","10.0","https://app.prolific.com/","en-US,en;q=0.9","662e920879f834a69ed53ed3","67949641171f97c04e14fb34","6795149f6b09fb5260e31cda","","null","<img   src='G_6.jpg' height='90'> <img   src='G_8.jpg' height='90'> <img id='swapped' src='G_1.jpg' height='90'> <img id='swapped'   src='G_4.jpg' height='90'> <img src='G_3.jpg' height='90'> <img src='G_7.jpg' height='90'> <img src='G_5.jpg' height='90'> <img src='G_2.jpg' height='90'>","null","Animation1"
"","","","","","html-keyboard-response","132","648036","0.0-62.0","38","1","2025-01-25 16:43:21","af8d355d56820e421d246a7037deb6e6","72.48.24.143","Mozilla/5.0 (Windows NT 10.0; Win64; x64) AppleWebKit/537.36 (KHTML, like Gecko) Chrome/131.0.0.0 Safari/537.36","WebKit","Chrome","131.0.0.0","Windows","10.0","https://app.prolific.com/","en-US,en;q=0.9","662e920879f834a69ed53ed3","67949641171f97c04e14fb34","6795149f6b09fb5260e31cda","","null","<img   src='G_6.jpg' height='90'> <img   src='G_8.jpg' height='90'> <img  src='G_1.jpg' height='90'> <img    src='G_4.jpg' height='90'> <img src='G_3.jpg' height='90'> <img src='G_7.jpg' height='90'> <img src='G_5.jpg' height='90'> <img src='G_2.jpg' height='90'>","null","Animation1"
"","","","","","html-keyboard-response","133","648548","0.0-63.0","38","1","2025-01-25 16:43:21","af8d355d56820e421d246a7037deb6e6","72.48.24.143","Mozilla/5.0 (Windows NT 10.0; Win64; x64) AppleWebKit/537.36 (KHTML, like Gecko) Chrome/131.0.0.0 Safari/537.36","WebKit","Chrome","131.0.0.0","Windows","10.0","https://app.prolific.com/","en-US,en;q=0.9","662e920879f834a69ed53ed3","67949641171f97c04e14fb34","6795149f6b09fb5260e31cda","","null","<img   src='G_6.jpg' height='90'> <img id='selected'   src='G_8.jpg' height='90'> <img  src='G_1.jpg' height='90'> <img    src='G_4.jpg' height='90'> <img src='G_3.jpg' height='90'> <img src='G_7.jpg' height='90'> <img src='G_5.jpg' height='90'> <img src='G_2.jpg' height='90'>","null","Animation1"
"","","","","","html-keyboard-response","134","649060","0.0-64.0","38","1","2025-01-25 16:43:21","af8d355d56820e421d246a7037deb6e6","72.48.24.143","Mozilla/5.0 (Windows NT 10.0; Win64; x64) AppleWebKit/537.36 (KHTML, like Gecko) Chrome/131.0.0.0 Safari/537.36","WebKit","Chrome","131.0.0.0","Windows","10.0","https://app.prolific.com/","en-US,en;q=0.9","662e920879f834a69ed53ed3","67949641171f97c04e14fb34","6795149f6b09fb5260e31cda","","null","<img   src='G_6.jpg' height='90'> <img id='selected'   src='G_8.jpg' height='90'> <img id='selected'  src='G_1.jpg' height='90'> <img    src='G_4.jpg' height='90'> <img src='G_3.jpg' height='90'> <img src='G_7.jpg' height='90'> <img src='G_5.jpg' height='90'> <img src='G_2.jpg' height='90'>","null","Animation1"
"","","","","","html-keyboard-response","135","649575","0.0-65.0","38","1","2025-01-25 16:43:21","af8d355d56820e421d246a7037deb6e6","72.48.24.143","Mozilla/5.0 (Windows NT 10.0; Win64; x64) AppleWebKit/537.36 (KHTML, like Gecko) Chrome/131.0.0.0 Safari/537.36","WebKit","Chrome","131.0.0.0","Windows","10.0","https://app.prolific.com/","en-US,en;q=0.9","662e920879f834a69ed53ed3","67949641171f97c04e14fb34","6795149f6b09fb5260e31cda","","null","<img   src='G_6.jpg' height='90'> <img id='swapped'  src='G_1.jpg' height='90'> <img id='swapped'   src='G_8.jpg' height='90'> <img    src='G_4.jpg' height='90'> <img src='G_3.jpg' height='90'> <img src='G_7.jpg' height='90'> <img src='G_5.jpg' height='90'> <img src='G_2.jpg' height='90'>","null","Animation1"
"","","","","","html-keyboard-response","136","649888","0.0-66.0","38","1","2025-01-25 16:43:21","af8d355d56820e421d246a7037deb6e6","72.48.24.143","Mozilla/5.0 (Windows NT 10.0; Win64; x64) AppleWebKit/537.36 (KHTML, like Gecko) Chrome/131.0.0.0 Safari/537.36","WebKit","Chrome","131.0.0.0","Windows","10.0","https://app.prolific.com/","en-US,en;q=0.9","662e920879f834a69ed53ed3","67949641171f97c04e14fb34","6795149f6b09fb5260e31cda","","null","<img   src='G_6.jpg' height='90'> <img   src='G_1.jpg' height='90'> <img    src='G_8.jpg' height='90'> <img    src='G_4.jpg' height='90'> <img src='G_3.jpg' height='90'> <img src='G_7.jpg' height='90'> <img src='G_5.jpg' height='90'> <img src='G_2.jpg' height='90'>","null","Animation1"
"","","","","","html-keyboard-response","137","650406","0.0-67.0","38","1","2025-01-25 16:43:21","af8d355d56820e421d246a7037deb6e6","72.48.24.143","Mozilla/5.0 (Windows NT 10.0; Win64; x64) AppleWebKit/537.36 (KHTML, like Gecko) Chrome/131.0.0.0 Safari/537.36","WebKit","Chrome","131.0.0.0","Windows","10.0","https://app.prolific.com/","en-US,en;q=0.9","662e920879f834a69ed53ed3","67949641171f97c04e14fb34","6795149f6b09fb5260e31cda","","null","<img id='selected'   src='G_6.jpg' height='90'> <img   src='G_1.jpg' height='90'> <img    src='G_8.jpg' height='90'> <img    src='G_4.jpg' height='90'> <img src='G_3.jpg' height='90'> <img src='G_7.jpg' height='90'> <img src='G_5.jpg' height='90'> <img src='G_2.jpg' height='90'>","null","Animation1"
"","","","","","html-keyboard-response","138","650913","0.0-68.0","38","1","2025-01-25 16:43:21","af8d355d56820e421d246a7037deb6e6","72.48.24.143","Mozilla/5.0 (Windows NT 10.0; Win64; x64) AppleWebKit/537.36 (KHTML, like Gecko) Chrome/131.0.0.0 Safari/537.36","WebKit","Chrome","131.0.0.0","Windows","10.0","https://app.prolific.com/","en-US,en;q=0.9","662e920879f834a69ed53ed3","67949641171f97c04e14fb34","6795149f6b09fb5260e31cda","","null","<img id='selected'   src='G_6.jpg' height='90'> <img id='selected'   src='G_1.jpg' height='90'> <img    src='G_8.jpg' height='90'> <img    src='G_4.jpg' height='90'> <img src='G_3.jpg' height='90'> <img src='G_7.jpg' height='90'> <img src='G_5.jpg' height='90'> <img src='G_2.jpg' height='90'>","null","Animation1"
"","","","","","html-keyboard-response","139","651429","0.0-69.0","38","1","2025-01-25 16:43:21","af8d355d56820e421d246a7037deb6e6","72.48.24.143","Mozilla/5.0 (Windows NT 10.0; Win64; x64) AppleWebKit/537.36 (KHTML, like Gecko) Chrome/131.0.0.0 Safari/537.36","WebKit","Chrome","131.0.0.0","Windows","10.0","https://app.prolific.com/","en-US,en;q=0.9","662e920879f834a69ed53ed3","67949641171f97c04e14fb34","6795149f6b09fb5260e31cda","","null","<img id='swapped'   src='G_1.jpg' height='90'> <img id='swapped'   src='G_6.jpg' height='90'> <img    src='G_8.jpg' height='90'> <img    src='G_4.jpg' height='90'> <img src='G_3.jpg' height='90'> <img src='G_7.jpg' height='90'> <img src='G_5.jpg' height='90'> <img src='G_2.jpg' height='90'>","null","Animation1"
"","","","","","html-keyboard-response","140","651736","0.0-70.0","38","1","2025-01-25 16:43:21","af8d355d56820e421d246a7037deb6e6","72.48.24.143","Mozilla/5.0 (Windows NT 10.0; Win64; x64) AppleWebKit/537.36 (KHTML, like Gecko) Chrome/131.0.0.0 Safari/537.36","WebKit","Chrome","131.0.0.0","Windows","10.0","https://app.prolific.com/","en-US,en;q=0.9","662e920879f834a69ed53ed3","67949641171f97c04e14fb34","6795149f6b09fb5260e31cda","","null","<img    src='G_1.jpg' height='90'> <img    src='G_6.jpg' height='90'> <img    src='G_8.jpg' height='90'> <img    src='G_4.jpg' height='90'> <img src='G_3.jpg' height='90'> <img src='G_7.jpg' height='90'> <img src='G_5.jpg' height='90'> <img src='G_2.jpg' height='90'>","null","Animation1"
"","","","","","html-keyboard-response","141","652246","0.0-71.0","38","1","2025-01-25 16:43:21","af8d355d56820e421d246a7037deb6e6","72.48.24.143","Mozilla/5.0 (Windows NT 10.0; Win64; x64) AppleWebKit/537.36 (KHTML, like Gecko) Chrome/131.0.0.0 Safari/537.36","WebKit","Chrome","131.0.0.0","Windows","10.0","https://app.prolific.com/","en-US,en;q=0.9","662e920879f834a69ed53ed3","67949641171f97c04e14fb34","6795149f6b09fb5260e31cda","","null","<img    src='G_1.jpg' height='90'> <img    src='G_6.jpg' height='90'> <img    src='G_8.jpg' height='90'> <img id='selected'    src='G_4.jpg' height='90'> <img src='G_3.jpg' height='90'> <img src='G_7.jpg' height='90'> <img src='G_5.jpg' height='90'> <img src='G_2.jpg' height='90'>","null","Animation1"
"","","","","","html-keyboard-response","142","652758","0.0-72.0","38","1","2025-01-25 16:43:21","af8d355d56820e421d246a7037deb6e6","72.48.24.143","Mozilla/5.0 (Windows NT 10.0; Win64; x64) AppleWebKit/537.36 (KHTML, like Gecko) Chrome/131.0.0.0 Safari/537.36","WebKit","Chrome","131.0.0.0","Windows","10.0","https://app.prolific.com/","en-US,en;q=0.9","662e920879f834a69ed53ed3","67949641171f97c04e14fb34","6795149f6b09fb5260e31cda","","null","<img    src='G_1.jpg' height='90'> <img    src='G_6.jpg' height='90'> <img    src='G_8.jpg' height='90'> <img id='selected'    src='G_4.jpg' height='90'> <img id='selected' src='G_3.jpg' height='90'> <img src='G_7.jpg' height='90'> <img src='G_5.jpg' height='90'> <img src='G_2.jpg' height='90'>","null","Animation1"
"","","","","","html-keyboard-response","143","653266","0.0-73.0","38","1","2025-01-25 16:43:21","af8d355d56820e421d246a7037deb6e6","72.48.24.143","Mozilla/5.0 (Windows NT 10.0; Win64; x64) AppleWebKit/537.36 (KHTML, like Gecko) Chrome/131.0.0.0 Safari/537.36","WebKit","Chrome","131.0.0.0","Windows","10.0","https://app.prolific.com/","en-US,en;q=0.9","662e920879f834a69ed53ed3","67949641171f97c04e14fb34","6795149f6b09fb5260e31cda","","null","<img    src='G_1.jpg' height='90'> <img    src='G_6.jpg' height='90'> <img    src='G_8.jpg' height='90'> <img id='swapped' src='G_3.jpg' height='90'> <img id='swapped'    src='G_4.jpg' height='90'> <img src='G_7.jpg' height='90'> <img src='G_5.jpg' height='90'> <img src='G_2.jpg' height='90'>","null","Animation1"
"","","","","","html-keyboard-response","144","653587","0.0-74.0","38","1","2025-01-25 16:43:21","af8d355d56820e421d246a7037deb6e6","72.48.24.143","Mozilla/5.0 (Windows NT 10.0; Win64; x64) AppleWebKit/537.36 (KHTML, like Gecko) Chrome/131.0.0.0 Safari/537.36","WebKit","Chrome","131.0.0.0","Windows","10.0","https://app.prolific.com/","en-US,en;q=0.9","662e920879f834a69ed53ed3","67949641171f97c04e14fb34","6795149f6b09fb5260e31cda","","null","<img    src='G_1.jpg' height='90'> <img    src='G_6.jpg' height='90'> <img    src='G_8.jpg' height='90'> <img  src='G_3.jpg' height='90'> <img     src='G_4.jpg' height='90'> <img src='G_7.jpg' height='90'> <img src='G_5.jpg' height='90'> <img src='G_2.jpg' height='90'>","null","Animation1"
"","","","","","html-keyboard-response","145","654093","0.0-75.0","38","1","2025-01-25 16:43:21","af8d355d56820e421d246a7037deb6e6","72.48.24.143","Mozilla/5.0 (Windows NT 10.0; Win64; x64) AppleWebKit/537.36 (KHTML, like Gecko) Chrome/131.0.0.0 Safari/537.36","WebKit","Chrome","131.0.0.0","Windows","10.0","https://app.prolific.com/","en-US,en;q=0.9","662e920879f834a69ed53ed3","67949641171f97c04e14fb34","6795149f6b09fb5260e31cda","","null","<img    src='G_1.jpg' height='90'> <img    src='G_6.jpg' height='90'> <img id='selected'    src='G_8.jpg' height='90'> <img  src='G_3.jpg' height='90'> <img     src='G_4.jpg' height='90'> <img src='G_7.jpg' height='90'> <img src='G_5.jpg' height='90'> <img src='G_2.jpg' height='90'>","null","Animation1"
"","","","","","html-keyboard-response","146","654613","0.0-76.0","38","1","2025-01-25 16:43:21","af8d355d56820e421d246a7037deb6e6","72.48.24.143","Mozilla/5.0 (Windows NT 10.0; Win64; x64) AppleWebKit/537.36 (KHTML, like Gecko) Chrome/131.0.0.0 Safari/537.36","WebKit","Chrome","131.0.0.0","Windows","10.0","https://app.prolific.com/","en-US,en;q=0.9","662e920879f834a69ed53ed3","67949641171f97c04e14fb34","6795149f6b09fb5260e31cda","","null","<img    src='G_1.jpg' height='90'> <img    src='G_6.jpg' height='90'> <img id='selected'    src='G_8.jpg' height='90'> <img id='selected'  src='G_3.jpg' height='90'> <img     src='G_4.jpg' height='90'> <img src='G_7.jpg' height='90'> <img src='G_5.jpg' height='90'> <img src='G_2.jpg' height='90'>","null","Animation1"
"","","","","","html-keyboard-response","147","655129","0.0-77.0","38","1","2025-01-25 16:43:21","af8d355d56820e421d246a7037deb6e6","72.48.24.143","Mozilla/5.0 (Windows NT 10.0; Win64; x64) AppleWebKit/537.36 (KHTML, like Gecko) Chrome/131.0.0.0 Safari/537.36","WebKit","Chrome","131.0.0.0","Windows","10.0","https://app.prolific.com/","en-US,en;q=0.9","662e920879f834a69ed53ed3","67949641171f97c04e14fb34","6795149f6b09fb5260e31cda","","null","<img    src='G_1.jpg' height='90'> <img    src='G_6.jpg' height='90'> <img id='swapped'  src='G_3.jpg' height='90'> <img id='swapped'    src='G_8.jpg' height='90'> <img     src='G_4.jpg' height='90'> <img src='G_7.jpg' height='90'> <img src='G_5.jpg' height='90'> <img src='G_2.jpg' height='90'>","null","Animation1"
"","","","","","html-keyboard-response","148","655438","0.0-78.0","38","1","2025-01-25 16:43:21","af8d355d56820e421d246a7037deb6e6","72.48.24.143","Mozilla/5.0 (Windows NT 10.0; Win64; x64) AppleWebKit/537.36 (KHTML, like Gecko) Chrome/131.0.0.0 Safari/537.36","WebKit","Chrome","131.0.0.0","Windows","10.0","https://app.prolific.com/","en-US,en;q=0.9","662e920879f834a69ed53ed3","67949641171f97c04e14fb34","6795149f6b09fb5260e31cda","","null","<img    src='G_1.jpg' height='90'> <img    src='G_6.jpg' height='90'> <img   src='G_3.jpg' height='90'> <img     src='G_8.jpg' height='90'> <img     src='G_4.jpg' height='90'> <img src='G_7.jpg' height='90'> <img src='G_5.jpg' height='90'> <img src='G_2.jpg' height='90'>","null","Animation1"
"","","","","","html-keyboard-response","149","655957","0.0-79.0","38","1","2025-01-25 16:43:21","af8d355d56820e421d246a7037deb6e6","72.48.24.143","Mozilla/5.0 (Windows NT 10.0; Win64; x64) AppleWebKit/537.36 (KHTML, like Gecko) Chrome/131.0.0.0 Safari/537.36","WebKit","Chrome","131.0.0.0","Windows","10.0","https://app.prolific.com/","en-US,en;q=0.9","662e920879f834a69ed53ed3","67949641171f97c04e14fb34","6795149f6b09fb5260e31cda","","null","<img    src='G_1.jpg' height='90'> <img id='selected'    src='G_6.jpg' height='90'> <img   src='G_3.jpg' height='90'> <img     src='G_8.jpg' height='90'> <img     src='G_4.jpg' height='90'> <img src='G_7.jpg' height='90'> <img src='G_5.jpg' height='90'> <img src='G_2.jpg' height='90'>","null","Animation1"
"","","","","","html-keyboard-response","150","656474","0.0-80.0","38","1","2025-01-25 16:43:21","af8d355d56820e421d246a7037deb6e6","72.48.24.143","Mozilla/5.0 (Windows NT 10.0; Win64; x64) AppleWebKit/537.36 (KHTML, like Gecko) Chrome/131.0.0.0 Safari/537.36","WebKit","Chrome","131.0.0.0","Windows","10.0","https://app.prolific.com/","en-US,en;q=0.9","662e920879f834a69ed53ed3","67949641171f97c04e14fb34","6795149f6b09fb5260e31cda","","null","<img    src='G_1.jpg' height='90'> <img id='selected'    src='G_6.jpg' height='90'> <img id='selected'   src='G_3.jpg' height='90'> <img     src='G_8.jpg' height='90'> <img     src='G_4.jpg' height='90'> <img src='G_7.jpg' height='90'> <img src='G_5.jpg' height='90'> <img src='G_2.jpg' height='90'>","null","Animation1"
"","","","","","html-keyboard-response","151","656980","0.0-81.0","38","1","2025-01-25 16:43:21","af8d355d56820e421d246a7037deb6e6","72.48.24.143","Mozilla/5.0 (Windows NT 10.0; Win64; x64) AppleWebKit/537.36 (KHTML, like Gecko) Chrome/131.0.0.0 Safari/537.36","WebKit","Chrome","131.0.0.0","Windows","10.0","https://app.prolific.com/","en-US,en;q=0.9","662e920879f834a69ed53ed3","67949641171f97c04e14fb34","6795149f6b09fb5260e31cda","","null","<img    src='G_1.jpg' height='90'> <img id='swapped'   src='G_3.jpg' height='90'> <img id='swapped'    src='G_6.jpg' height='90'> <img     src='G_8.jpg' height='90'> <img     src='G_4.jpg' height='90'> <img src='G_7.jpg' height='90'> <img src='G_5.jpg' height='90'> <img src='G_2.jpg' height='90'>","null","Animation1"
"","","","","","html-keyboard-response","152","657287","0.0-82.0","38","1","2025-01-25 16:43:21","af8d355d56820e421d246a7037deb6e6","72.48.24.143","Mozilla/5.0 (Windows NT 10.0; Win64; x64) AppleWebKit/537.36 (KHTML, like Gecko) Chrome/131.0.0.0 Safari/537.36","WebKit","Chrome","131.0.0.0","Windows","10.0","https://app.prolific.com/","en-US,en;q=0.9","662e920879f834a69ed53ed3","67949641171f97c04e14fb34","6795149f6b09fb5260e31cda","","null","<img    src='G_1.jpg' height='90'> <img    src='G_3.jpg' height='90'> <img     src='G_6.jpg' height='90'> <img     src='G_8.jpg' height='90'> <img     src='G_4.jpg' height='90'> <img src='G_7.jpg' height='90'> <img src='G_5.jpg' height='90'> <img src='G_2.jpg' height='90'>","null","Animation1"
"","","","","","html-keyboard-response","153","657806","0.0-83.0","38","1","2025-01-25 16:43:21","af8d355d56820e421d246a7037deb6e6","72.48.24.143","Mozilla/5.0 (Windows NT 10.0; Win64; x64) AppleWebKit/537.36 (KHTML, like Gecko) Chrome/131.0.0.0 Safari/537.36","WebKit","Chrome","131.0.0.0","Windows","10.0","https://app.prolific.com/","en-US,en;q=0.9","662e920879f834a69ed53ed3","67949641171f97c04e14fb34","6795149f6b09fb5260e31cda","","null","<img id='selected'    src='G_1.jpg' height='90'> <img    src='G_3.jpg' height='90'> <img     src='G_6.jpg' height='90'> <img     src='G_8.jpg' height='90'> <img     src='G_4.jpg' height='90'> <img src='G_7.jpg' height='90'> <img src='G_5.jpg' height='90'> <img src='G_2.jpg' height='90'>","null","Animation1"
"","","","","","html-keyboard-response","154","658323","0.0-84.0","38","1","2025-01-25 16:43:21","af8d355d56820e421d246a7037deb6e6","72.48.24.143","Mozilla/5.0 (Windows NT 10.0; Win64; x64) AppleWebKit/537.36 (KHTML, like Gecko) Chrome/131.0.0.0 Safari/537.36","WebKit","Chrome","131.0.0.0","Windows","10.0","https://app.prolific.com/","en-US,en;q=0.9","662e920879f834a69ed53ed3","67949641171f97c04e14fb34","6795149f6b09fb5260e31cda","","null","<img id='selected'    src='G_1.jpg' height='90'> <img id='selected'    src='G_3.jpg' height='90'> <img     src='G_6.jpg' height='90'> <img     src='G_8.jpg' height='90'> <img     src='G_4.jpg' height='90'> <img src='G_7.jpg' height='90'> <img src='G_5.jpg' height='90'> <img src='G_2.jpg' height='90'>","null","Animation1"
"","","","","","html-keyboard-response","155","658843","0.0-85.0","38","1","2025-01-25 16:43:21","af8d355d56820e421d246a7037deb6e6","72.48.24.143","Mozilla/5.0 (Windows NT 10.0; Win64; x64) AppleWebKit/537.36 (KHTML, like Gecko) Chrome/131.0.0.0 Safari/537.36","WebKit","Chrome","131.0.0.0","Windows","10.0","https://app.prolific.com/","en-US,en;q=0.9","662e920879f834a69ed53ed3","67949641171f97c04e14fb34","6795149f6b09fb5260e31cda","","null","<img id='selected'    src='G_1.jpg' height='90'> <img id='selected'    src='G_3.jpg' height='90'> <img     src='G_6.jpg' height='90'> <img     src='G_8.jpg' height='90'> <img     src='G_4.jpg' height='90'> <img src='G_7.jpg' height='90'> <img src='G_5.jpg' height='90'> <img src='G_2.jpg' height='90'>","null","Animation1"
"","","","","","html-keyboard-response","156","659155","0.0-86.0","38","1","2025-01-25 16:43:21","af8d355d56820e421d246a7037deb6e6","72.48.24.143","Mozilla/5.0 (Windows NT 10.0; Win64; x64) AppleWebKit/537.36 (KHTML, like Gecko) Chrome/131.0.0.0 Safari/537.36","WebKit","Chrome","131.0.0.0","Windows","10.0","https://app.prolific.com/","en-US,en;q=0.9","662e920879f834a69ed53ed3","67949641171f97c04e14fb34","6795149f6b09fb5260e31cda","","null","<img     src='G_1.jpg' height='90'> <img     src='G_3.jpg' height='90'> <img     src='G_6.jpg' height='90'> <img     src='G_8.jpg' height='90'> <img     src='G_4.jpg' height='90'> <img src='G_7.jpg' height='90'> <img src='G_5.jpg' height='90'> <img src='G_2.jpg' height='90'>","null","Animation1"
"","","","","","html-keyboard-response","157","659664","0.0-87.0","38","1","2025-01-25 16:43:21","af8d355d56820e421d246a7037deb6e6","72.48.24.143","Mozilla/5.0 (Windows NT 10.0; Win64; x64) AppleWebKit/537.36 (KHTML, like Gecko) Chrome/131.0.0.0 Safari/537.36","WebKit","Chrome","131.0.0.0","Windows","10.0","https://app.prolific.com/","en-US,en;q=0.9","662e920879f834a69ed53ed3","67949641171f97c04e14fb34","6795149f6b09fb5260e31cda","","null","<img     src='G_1.jpg' height='90'> <img     src='G_3.jpg' height='90'> <img     src='G_6.jpg' height='90'> <img     src='G_8.jpg' height='90'> <img id='selected'     src='G_4.jpg' height='90'> <img src='G_7.jpg' height='90'> <img src='G_5.jpg' height='90'> <img src='G_2.jpg' height='90'>","null","Animation1"
"","","","","","html-keyboard-response","158","660179","0.0-88.0","38","1","2025-01-25 16:43:21","af8d355d56820e421d246a7037deb6e6","72.48.24.143","Mozilla/5.0 (Windows NT 10.0; Win64; x64) AppleWebKit/537.36 (KHTML, like Gecko) Chrome/131.0.0.0 Safari/537.36","WebKit","Chrome","131.0.0.0","Windows","10.0","https://app.prolific.com/","en-US,en;q=0.9","662e920879f834a69ed53ed3","67949641171f97c04e14fb34","6795149f6b09fb5260e31cda","","null","<img     src='G_1.jpg' height='90'> <img     src='G_3.jpg' height='90'> <img     src='G_6.jpg' height='90'> <img     src='G_8.jpg' height='90'> <img id='selected'     src='G_4.jpg' height='90'> <img id='selected' src='G_7.jpg' height='90'> <img src='G_5.jpg' height='90'> <img src='G_2.jpg' height='90'>","null","Animation1"
"","","","","","html-keyboard-response","159","660696","0.0-89.0","38","1","2025-01-25 16:43:21","af8d355d56820e421d246a7037deb6e6","72.48.24.143","Mozilla/5.0 (Windows NT 10.0; Win64; x64) AppleWebKit/537.36 (KHTML, like Gecko) Chrome/131.0.0.0 Safari/537.36","WebKit","Chrome","131.0.0.0","Windows","10.0","https://app.prolific.com/","en-US,en;q=0.9","662e920879f834a69ed53ed3","67949641171f97c04e14fb34","6795149f6b09fb5260e31cda","","null","<img     src='G_1.jpg' height='90'> <img     src='G_3.jpg' height='90'> <img     src='G_6.jpg' height='90'> <img     src='G_8.jpg' height='90'> <img id='swapped' src='G_7.jpg' height='90'> <img id='swapped'     src='G_4.jpg' height='90'> <img src='G_5.jpg' height='90'> <img src='G_2.jpg' height='90'>","null","Animation1"
"","","","","","html-keyboard-response","160","661012","0.0-90.0","38","1","2025-01-25 16:43:21","af8d355d56820e421d246a7037deb6e6","72.48.24.143","Mozilla/5.0 (Windows NT 10.0; Win64; x64) AppleWebKit/537.36 (KHTML, like Gecko) Chrome/131.0.0.0 Safari/537.36","WebKit","Chrome","131.0.0.0","Windows","10.0","https://app.prolific.com/","en-US,en;q=0.9","662e920879f834a69ed53ed3","67949641171f97c04e14fb34","6795149f6b09fb5260e31cda","","null","<img     src='G_1.jpg' height='90'> <img     src='G_3.jpg' height='90'> <img     src='G_6.jpg' height='90'> <img     src='G_8.jpg' height='90'> <img  src='G_7.jpg' height='90'> <img      src='G_4.jpg' height='90'> <img src='G_5.jpg' height='90'> <img src='G_2.jpg' height='90'>","null","Animation1"
"","","","","","html-keyboard-response","161","661525","0.0-91.0","38","1","2025-01-25 16:43:21","af8d355d56820e421d246a7037deb6e6","72.48.24.143","Mozilla/5.0 (Windows NT 10.0; Win64; x64) AppleWebKit/537.36 (KHTML, like Gecko) Chrome/131.0.0.0 Safari/537.36","WebKit","Chrome","131.0.0.0","Windows","10.0","https://app.prolific.com/","en-US,en;q=0.9","662e920879f834a69ed53ed3","67949641171f97c04e14fb34","6795149f6b09fb5260e31cda","","null","<img     src='G_1.jpg' height='90'> <img     src='G_3.jpg' height='90'> <img     src='G_6.jpg' height='90'> <img id='selected'     src='G_8.jpg' height='90'> <img  src='G_7.jpg' height='90'> <img      src='G_4.jpg' height='90'> <img src='G_5.jpg' height='90'> <img src='G_2.jpg' height='90'>","null","Animation1"
"","","","","","html-keyboard-response","162","662032","0.0-92.0","38","1","2025-01-25 16:43:21","af8d355d56820e421d246a7037deb6e6","72.48.24.143","Mozilla/5.0 (Windows NT 10.0; Win64; x64) AppleWebKit/537.36 (KHTML, like Gecko) Chrome/131.0.0.0 Safari/537.36","WebKit","Chrome","131.0.0.0","Windows","10.0","https://app.prolific.com/","en-US,en;q=0.9","662e920879f834a69ed53ed3","67949641171f97c04e14fb34","6795149f6b09fb5260e31cda","","null","<img     src='G_1.jpg' height='90'> <img     src='G_3.jpg' height='90'> <img     src='G_6.jpg' height='90'> <img id='selected'     src='G_8.jpg' height='90'> <img id='selected'  src='G_7.jpg' height='90'> <img      src='G_4.jpg' height='90'> <img src='G_5.jpg' height='90'> <img src='G_2.jpg' height='90'>","null","Animation1"
