"success","timeout","failed_images","failed_audio","failed_video","trial_type","trial_index","time_elapsed","internal_node_id","run_id","condition","recorded_at","source_code_version","ip","user_agent","device","browser","browser_version","platform","platform_version","referer","accept_language","PROLIFIC_PID","STUDY_ID","SESSION_ID","view_history","rt","stimulus","response","phase","question_order"
"true","false","[]","[]","[]","preload","0","103","0.0-0.0","42","1","2025-01-25 17:06:12","af8d355d56820e421d246a7037deb6e6","172.56.41.186","Mozilla/5.0 (Macintosh; Intel Mac OS X 10.15; rv:134.0) Gecko/20100101 Firefox/134.0","Macintosh","Firefox","134.0","OS X","10.15","https://app.prolific.com/","en-US,en;q=0.5","6774ed8fea9a49a640664efb","67949641171f97c04e14fb34","6795196ba7bd536b8d14fe82","","","","","",""
"","","","","","instructions","1","12514","0.0-1.0","42","1","2025-01-25 17:06:12","af8d355d56820e421d246a7037deb6e6","172.56.41.186","Mozilla/5.0 (Macintosh; Intel Mac OS X 10.15; rv:134.0) Gecko/20100101 Firefox/134.0","Macintosh","Firefox","134.0","OS X","10.15","https://app.prolific.com/","en-US,en;q=0.5","6774ed8fea9a49a640664efb","67949641171f97c04e14fb34","6795196ba7bd536b8d14fe82","[{""page_index"":0,""viewing_time"":12410}]","12411","","","",""
"","","","","","html-keyboard-response","2","13018","0.0-2.0","42","1","2025-01-25 17:06:12","af8d355d56820e421d246a7037deb6e6","172.56.41.186","Mozilla/5.0 (Macintosh; Intel Mac OS X 10.15; rv:134.0) Gecko/20100101 Firefox/134.0","Macintosh","Firefox","134.0","OS X","10.15","https://app.prolific.com/","en-US,en;q=0.5","6774ed8fea9a49a640664efb","67949641171f97c04e14fb34","6795196ba7bd536b8d14fe82","","null","<p> + <p/>","null","",""
"","","","","","instructions","3","50779","0.0-3.0","42","1","2025-01-25 17:06:12","af8d355d56820e421d246a7037deb6e6","172.56.41.186","Mozilla/5.0 (Macintosh; Intel Mac OS X 10.15; rv:134.0) Gecko/20100101 Firefox/134.0","Macintosh","Firefox","134.0","OS X","10.15","https://app.prolific.com/","en-US,en;q=0.5","6774ed8fea9a49a640664efb","67949641171f97c04e14fb34","6795196ba7bd536b8d14fe82","[{""page_index"":0,""viewing_time"":3535},{""page_index"":1,""viewing_time"":7250},{""page_index"":2,""viewing_time"":14574},{""page_index"":3,""viewing_time"":3144},{""page_index"":4,""viewing_time"":9256}]","37759","","","",""
"","","","","","html-button-response","4","75698","0.0-4.0-0.0-0.0","42","1","2025-01-25 17:06:12","af8d355d56820e421d246a7037deb6e6","172.56.41.186","Mozilla/5.0 (Macintosh; Intel Mac OS X 10.15; rv:134.0) Gecko/20100101 Firefox/134.0","Macintosh","Firefox","134.0","OS X","10.15","https://app.prolific.com/","en-US,en;q=0.5","6774ed8fea9a49a640664efb","67949641171f97c04e14fb34","6795196ba7bd536b8d14fe82","","24913","","1","Intro Trial",""
"","","","","","html-button-response","5","76136","0.0-4.1-0.1-0.1","42","1","2025-01-25 17:06:12","af8d355d56820e421d246a7037deb6e6","172.56.41.186","Mozilla/5.0 (Macintosh; Intel Mac OS X 10.15; rv:134.0) Gecko/20100101 Firefox/134.0","Macintosh","Firefox","134.0","OS X","10.15","https://app.prolific.com/","en-US,en;q=0.5","6774ed8fea9a49a640664efb","67949641171f97c04e14fb34","6795196ba7bd536b8d14fe82","","431","","2","Intro Trial",""
"","","","","","html-button-response","6","77734","0.0-4.2-0.2-0.2","42","1","2025-01-25 17:06:12","af8d355d56820e421d246a7037deb6e6","172.56.41.186","Mozilla/5.0 (Macintosh; Intel Mac OS X 10.15; rv:134.0) Gecko/20100101 Firefox/134.0","Macintosh","Firefox","134.0","OS X","10.15","https://app.prolific.com/","en-US,en;q=0.5","6774ed8fea9a49a640664efb","67949641171f97c04e14fb34","6795196ba7bd536b8d14fe82","","1594","","1","Intro Trial",""
"","","","","","html-button-response","7","78677","0.0-4.3-0.3-0.3","42","1","2025-01-25 17:06:12","af8d355d56820e421d246a7037deb6e6","172.56.41.186","Mozilla/5.0 (Macintosh; Intel Mac OS X 10.15; rv:134.0) Gecko/20100101 Firefox/134.0","Macintosh","Firefox","134.0","OS X","10.15","https://app.prolific.com/","en-US,en;q=0.5","6774ed8fea9a49a640664efb","67949641171f97c04e14fb34","6795196ba7bd536b8d14fe82","","939","","2","Intro Trial",""
"","","","","","html-button-response","8","79953","0.0-4.4-0.4-0.4","42","1","2025-01-25 17:06:12","af8d355d56820e421d246a7037deb6e6","172.56.41.186","Mozilla/5.0 (Macintosh; Intel Mac OS X 10.15; rv:134.0) Gecko/20100101 Firefox/134.0","Macintosh","Firefox","134.0","OS X","10.15","https://app.prolific.com/","en-US,en;q=0.5","6774ed8fea9a49a640664efb","67949641171f97c04e14fb34","6795196ba7bd536b8d14fe82","","1272","","2","Intro Trial",""
"","","","","","html-button-response","9","80899","0.0-4.5-0.5-0.5","42","1","2025-01-25 17:06:12","af8d355d56820e421d246a7037deb6e6","172.56.41.186","Mozilla/5.0 (Macintosh; Intel Mac OS X 10.15; rv:134.0) Gecko/20100101 Firefox/134.0","Macintosh","Firefox","134.0","OS X","10.15","https://app.prolific.com/","en-US,en;q=0.5","6774ed8fea9a49a640664efb","67949641171f97c04e14fb34","6795196ba7bd536b8d14fe82","","945","","1","Intro Trial",""
"","","","","","html-button-response","10","82052","0.0-4.6-0.6-0.6","42","1","2025-01-25 17:06:12","af8d355d56820e421d246a7037deb6e6","172.56.41.186","Mozilla/5.0 (Macintosh; Intel Mac OS X 10.15; rv:134.0) Gecko/20100101 Firefox/134.0","Macintosh","Firefox","134.0","OS X","10.15","https://app.prolific.com/","en-US,en;q=0.5","6774ed8fea9a49a640664efb","67949641171f97c04e14fb34","6795196ba7bd536b8d14fe82","","1150","","2","Intro Trial",""
"","","","","","html-button-response","11","83003","0.0-4.7-0.7-0.7","42","1","2025-01-25 17:06:12","af8d355d56820e421d246a7037deb6e6","172.56.41.186","Mozilla/5.0 (Macintosh; Intel Mac OS X 10.15; rv:134.0) Gecko/20100101 Firefox/134.0","Macintosh","Firefox","134.0","OS X","10.15","https://app.prolific.com/","en-US,en;q=0.5","6774ed8fea9a49a640664efb","67949641171f97c04e14fb34","6795196ba7bd536b8d14fe82","","949","","5","Intro Trial",""
"","","","","","html-keyboard-response","12","101302","0.0-5.0","42","1","2025-01-25 17:06:12","af8d355d56820e421d246a7037deb6e6","172.56.41.186","Mozilla/5.0 (Macintosh; Intel Mac OS X 10.15; rv:134.0) Gecko/20100101 Firefox/134.0","Macintosh","Firefox","134.0","OS X","10.15","https://app.prolific.com/","en-US,en;q=0.5","6774ed8fea9a49a640664efb","67949641171f97c04e14fb34","6795196ba7bd536b8d14fe82","","18297","[""You sorted incorrectly by using the balance 3 times. <br><br> <img src='G_1.jpg' height='90'><img src='G_2.jpg' height='90'><img src='G_3.jpg' height='90'><img src='G_4.jpg' height='90'><img src='G_5.jpg' height='90'><br><br> Your final order is 4,2,3,5,1<br><br><br>Omgne Sort in this game will allow you to sort correctly by using the balance 8 times. Press Enter to learn it!""]","enter","",""
"","","","","","html-keyboard-response","13","106461","0.0-6.0","42","1","2025-01-25 17:06:12","af8d355d56820e421d246a7037deb6e6","172.56.41.186","Mozilla/5.0 (Macintosh; Intel Mac OS X 10.15; rv:134.0) Gecko/20100101 Firefox/134.0","Macintosh","Firefox","134.0","OS X","10.15","https://app.prolific.com/","en-US,en;q=0.5","6774ed8fea9a49a640664efb","67949641171f97c04e14fb34","6795196ba7bd536b8d14fe82","","5156","<p>Welcome to the learning phase! <br><br> You will learn by six examples. The following learning trials will not be used to calculate your performance. <br><br> Press Enter to continue.<p/>","enter","",""
"","","","","","html-keyboard-response","14","112038","0.0-7.0","42","1","2025-01-25 17:06:12","af8d355d56820e421d246a7037deb6e6","172.56.41.186","Mozilla/5.0 (Macintosh; Intel Mac OS X 10.15; rv:134.0) Gecko/20100101 Firefox/134.0","Macintosh","Firefox","134.0","OS X","10.15","https://app.prolific.com/","en-US,en;q=0.5","6774ed8fea9a49a640664efb","67949641171f97c04e14fb34","6795196ba7bd536b8d14fe82","","5575","[""Example 1<br><br>You will watch Omnge Sort in action. Try to identify any patterns in the comparisons made by this method. <br><br>Press Enter to continue.""]","enter","",""
"","","","","","html-keyboard-response","15","112545","0.0-8.0","42","1","2025-01-25 17:06:12","af8d355d56820e421d246a7037deb6e6","172.56.41.186","Mozilla/5.0 (Macintosh; Intel Mac OS X 10.15; rv:134.0) Gecko/20100101 Firefox/134.0","Macintosh","Firefox","134.0","OS X","10.15","https://app.prolific.com/","en-US,en;q=0.5","6774ed8fea9a49a640664efb","67949641171f97c04e14fb34","6795196ba7bd536b8d14fe82","","null","<img id='selected' src='G_3.jpg' height='90'> <img src='G_7.jpg' height='90'> <img src='G_1.jpg' height='90'> <img src='G_9.jpg' height='90'> <img src='G_5.jpg' height='90'>","null","Animation0",""
"","","","","","html-keyboard-response","16","113050","0.0-9.0","42","1","2025-01-25 17:06:12","af8d355d56820e421d246a7037deb6e6","172.56.41.186","Mozilla/5.0 (Macintosh; Intel Mac OS X 10.15; rv:134.0) Gecko/20100101 Firefox/134.0","Macintosh","Firefox","134.0","OS X","10.15","https://app.prolific.com/","en-US,en;q=0.5","6774ed8fea9a49a640664efb","67949641171f97c04e14fb34","6795196ba7bd536b8d14fe82","","null","<img id='selected' src='G_3.jpg' height='90'> <img id='selected' src='G_7.jpg' height='90'> <img src='G_1.jpg' height='90'> <img src='G_9.jpg' height='90'> <img src='G_5.jpg' height='90'>","null","Animation0",""
"","","","","","html-keyboard-response","17","113551","0.0-10.0","42","1","2025-01-25 17:06:12","af8d355d56820e421d246a7037deb6e6","172.56.41.186","Mozilla/5.0 (Macintosh; Intel Mac OS X 10.15; rv:134.0) Gecko/20100101 Firefox/134.0","Macintosh","Firefox","134.0","OS X","10.15","https://app.prolific.com/","en-US,en;q=0.5","6774ed8fea9a49a640664efb","67949641171f97c04e14fb34","6795196ba7bd536b8d14fe82","","null","<img id='swapped' src='G_7.jpg' height='90'> <img id='swapped' src='G_3.jpg' height='90'> <img src='G_1.jpg' height='90'> <img src='G_9.jpg' height='90'> <img src='G_5.jpg' height='90'>","null","Animation0",""
"","","","","","html-keyboard-response","18","113861","0.0-11.0","42","1","2025-01-25 17:06:12","af8d355d56820e421d246a7037deb6e6","172.56.41.186","Mozilla/5.0 (Macintosh; Intel Mac OS X 10.15; rv:134.0) Gecko/20100101 Firefox/134.0","Macintosh","Firefox","134.0","OS X","10.15","https://app.prolific.com/","en-US,en;q=0.5","6774ed8fea9a49a640664efb","67949641171f97c04e14fb34","6795196ba7bd536b8d14fe82","","null","<img  src='G_7.jpg' height='90'> <img  src='G_3.jpg' height='90'> <img src='G_1.jpg' height='90'> <img src='G_9.jpg' height='90'> <img src='G_5.jpg' height='90'>","null","Animation0",""
"","","","","","html-keyboard-response","19","114365","0.0-12.0","42","1","2025-01-25 17:06:12","af8d355d56820e421d246a7037deb6e6","172.56.41.186","Mozilla/5.0 (Macintosh; Intel Mac OS X 10.15; rv:134.0) Gecko/20100101 Firefox/134.0","Macintosh","Firefox","134.0","OS X","10.15","https://app.prolific.com/","en-US,en;q=0.5","6774ed8fea9a49a640664efb","67949641171f97c04e14fb34","6795196ba7bd536b8d14fe82","","null","<img  src='G_7.jpg' height='90'> <img id='selected'  src='G_3.jpg' height='90'> <img src='G_1.jpg' height='90'> <img src='G_9.jpg' height='90'> <img src='G_5.jpg' height='90'>","null","Animation0",""
"","","","","","html-keyboard-response","20","114914","0.0-13.0","42","1","2025-01-25 17:06:12","af8d355d56820e421d246a7037deb6e6","172.56.41.186","Mozilla/5.0 (Macintosh; Intel Mac OS X 10.15; rv:134.0) Gecko/20100101 Firefox/134.0","Macintosh","Firefox","134.0","OS X","10.15","https://app.prolific.com/","en-US,en;q=0.5","6774ed8fea9a49a640664efb","67949641171f97c04e14fb34","6795196ba7bd536b8d14fe82","","null","<img  src='G_7.jpg' height='90'> <img id='selected'  src='G_3.jpg' height='90'> <img id='selected' src='G_1.jpg' height='90'> <img src='G_9.jpg' height='90'> <img src='G_5.jpg' height='90'>","null","Animation0",""
"","","","","","html-keyboard-response","21","115420","0.0-14.0","42","1","2025-01-25 17:06:12","af8d355d56820e421d246a7037deb6e6","172.56.41.186","Mozilla/5.0 (Macintosh; Intel Mac OS X 10.15; rv:134.0) Gecko/20100101 Firefox/134.0","Macintosh","Firefox","134.0","OS X","10.15","https://app.prolific.com/","en-US,en;q=0.5","6774ed8fea9a49a640664efb","67949641171f97c04e14fb34","6795196ba7bd536b8d14fe82","","null","<img  src='G_7.jpg' height='90'> <img id='selected'  src='G_3.jpg' height='90'> <img id='selected' src='G_1.jpg' height='90'> <img src='G_9.jpg' height='90'> <img src='G_5.jpg' height='90'>","null","Animation0",""
"","","","","","html-keyboard-response","22","115727","0.0-15.0","42","1","2025-01-25 17:06:12","af8d355d56820e421d246a7037deb6e6","172.56.41.186","Mozilla/5.0 (Macintosh; Intel Mac OS X 10.15; rv:134.0) Gecko/20100101 Firefox/134.0","Macintosh","Firefox","134.0","OS X","10.15","https://app.prolific.com/","en-US,en;q=0.5","6774ed8fea9a49a640664efb","67949641171f97c04e14fb34","6795196ba7bd536b8d14fe82","","null","<img  src='G_7.jpg' height='90'> <img   src='G_3.jpg' height='90'> <img  src='G_1.jpg' height='90'> <img src='G_9.jpg' height='90'> <img src='G_5.jpg' height='90'>","null","Animation0",""
"","","","","","html-keyboard-response","23","116233","0.0-16.0","42","1","2025-01-25 17:06:12","af8d355d56820e421d246a7037deb6e6","172.56.41.186","Mozilla/5.0 (Macintosh; Intel Mac OS X 10.15; rv:134.0) Gecko/20100101 Firefox/134.0","Macintosh","Firefox","134.0","OS X","10.15","https://app.prolific.com/","en-US,en;q=0.5","6774ed8fea9a49a640664efb","67949641171f97c04e14fb34","6795196ba7bd536b8d14fe82","","null","<img  src='G_7.jpg' height='90'> <img   src='G_3.jpg' height='90'> <img id='selected'  src='G_1.jpg' height='90'> <img src='G_9.jpg' height='90'> <img src='G_5.jpg' height='90'>","null","Animation0",""
"","","","","","html-keyboard-response","24","116736","0.0-17.0","42","1","2025-01-25 17:06:12","af8d355d56820e421d246a7037deb6e6","172.56.41.186","Mozilla/5.0 (Macintosh; Intel Mac OS X 10.15; rv:134.0) Gecko/20100101 Firefox/134.0","Macintosh","Firefox","134.0","OS X","10.15","https://app.prolific.com/","en-US,en;q=0.5","6774ed8fea9a49a640664efb","67949641171f97c04e14fb34","6795196ba7bd536b8d14fe82","","null","<img  src='G_7.jpg' height='90'> <img   src='G_3.jpg' height='90'> <img id='selected'  src='G_1.jpg' height='90'> <img id='selected' src='G_9.jpg' height='90'> <img src='G_5.jpg' height='90'>","null","Animation0",""
"","","","","","html-keyboard-response","25","117238","0.0-18.0","42","1","2025-01-25 17:06:12","af8d355d56820e421d246a7037deb6e6","172.56.41.186","Mozilla/5.0 (Macintosh; Intel Mac OS X 10.15; rv:134.0) Gecko/20100101 Firefox/134.0","Macintosh","Firefox","134.0","OS X","10.15","https://app.prolific.com/","en-US,en;q=0.5","6774ed8fea9a49a640664efb","67949641171f97c04e14fb34","6795196ba7bd536b8d14fe82","","null","<img  src='G_7.jpg' height='90'> <img   src='G_3.jpg' height='90'> <img id='selected'  src='G_1.jpg' height='90'> <img id='selected' src='G_9.jpg' height='90'> <img src='G_5.jpg' height='90'>","null","Animation0",""
"","","","","","html-keyboard-response","26","117544","0.0-19.0","42","1","2025-01-25 17:06:12","af8d355d56820e421d246a7037deb6e6","172.56.41.186","Mozilla/5.0 (Macintosh; Intel Mac OS X 10.15; rv:134.0) Gecko/20100101 Firefox/134.0","Macintosh","Firefox","134.0","OS X","10.15","https://app.prolific.com/","en-US,en;q=0.5","6774ed8fea9a49a640664efb","67949641171f97c04e14fb34","6795196ba7bd536b8d14fe82","","null","<img  src='G_7.jpg' height='90'> <img   src='G_3.jpg' height='90'> <img   src='G_1.jpg' height='90'> <img  src='G_9.jpg' height='90'> <img src='G_5.jpg' height='90'>","null","Animation0",""
"","","","","","html-keyboard-response","27","118046","0.0-20.0","42","1","2025-01-25 17:06:12","af8d355d56820e421d246a7037deb6e6","172.56.41.186","Mozilla/5.0 (Macintosh; Intel Mac OS X 10.15; rv:134.0) Gecko/20100101 Firefox/134.0","Macintosh","Firefox","134.0","OS X","10.15","https://app.prolific.com/","en-US,en;q=0.5","6774ed8fea9a49a640664efb","67949641171f97c04e14fb34","6795196ba7bd536b8d14fe82","","null","<img  src='G_7.jpg' height='90'> <img   src='G_3.jpg' height='90'> <img   src='G_1.jpg' height='90'> <img id='selected'  src='G_9.jpg' height='90'> <img src='G_5.jpg' height='90'>","null","Animation0",""
"","","","","","html-keyboard-response","28","118549","0.0-21.0","42","1","2025-01-25 17:06:12","af8d355d56820e421d246a7037deb6e6","172.56.41.186","Mozilla/5.0 (Macintosh; Intel Mac OS X 10.15; rv:134.0) Gecko/20100101 Firefox/134.0","Macintosh","Firefox","134.0","OS X","10.15","https://app.prolific.com/","en-US,en;q=0.5","6774ed8fea9a49a640664efb","67949641171f97c04e14fb34","6795196ba7bd536b8d14fe82","","null","<img  src='G_7.jpg' height='90'> <img   src='G_3.jpg' height='90'> <img   src='G_1.jpg' height='90'> <img id='selected'  src='G_9.jpg' height='90'> <img id='selected' src='G_5.jpg' height='90'>","null","Animation0",""
"","","","","","html-keyboard-response","29","119068","0.0-22.0","42","1","2025-01-25 17:06:12","af8d355d56820e421d246a7037deb6e6","172.56.41.186","Mozilla/5.0 (Macintosh; Intel Mac OS X 10.15; rv:134.0) Gecko/20100101 Firefox/134.0","Macintosh","Firefox","134.0","OS X","10.15","https://app.prolific.com/","en-US,en;q=0.5","6774ed8fea9a49a640664efb","67949641171f97c04e14fb34","6795196ba7bd536b8d14fe82","","null","<img  src='G_7.jpg' height='90'> <img   src='G_3.jpg' height='90'> <img   src='G_1.jpg' height='90'> <img id='selected'  src='G_9.jpg' height='90'> <img id='selected' src='G_5.jpg' height='90'>","null","Animation0",""
"","","","","","html-keyboard-response","30","119375","0.0-23.0","42","1","2025-01-25 17:06:12","af8d355d56820e421d246a7037deb6e6","172.56.41.186","Mozilla/5.0 (Macintosh; Intel Mac OS X 10.15; rv:134.0) Gecko/20100101 Firefox/134.0","Macintosh","Firefox","134.0","OS X","10.15","https://app.prolific.com/","en-US,en;q=0.5","6774ed8fea9a49a640664efb","67949641171f97c04e14fb34","6795196ba7bd536b8d14fe82","","null","<img  src='G_7.jpg' height='90'> <img   src='G_3.jpg' height='90'> <img   src='G_1.jpg' height='90'> <img   src='G_9.jpg' height='90'> <img  src='G_5.jpg' height='90'>","null","Animation0",""
"","","","","","html-keyboard-response","31","121095","0.0-24.0","42","1","2025-01-25 17:06:12","af8d355d56820e421d246a7037deb6e6","172.56.41.186","Mozilla/5.0 (Macintosh; Intel Mac OS X 10.15; rv:134.0) Gecko/20100101 Firefox/134.0","Macintosh","Firefox","134.0","OS X","10.15","https://app.prolific.com/","en-US,en;q=0.5","6774ed8fea9a49a640664efb","67949641171f97c04e14fb34","6795196ba7bd536b8d14fe82","","1719","[""Did you notice any patterns? <br><br>Press Enter to watch that example again and follow the steps of Omgne Sort.""]","enter","",""
"","","","","","html-button-response","32","121499","0.0-25.0","42","1","2025-01-25 17:06:12","af8d355d56820e421d246a7037deb6e6","172.56.41.186","Mozilla/5.0 (Macintosh; Intel Mac OS X 10.15; rv:134.0) Gecko/20100101 Firefox/134.0","Macintosh","Firefox","134.0","OS X","10.15","https://app.prolific.com/","en-US,en;q=0.5","6774ed8fea9a49a640664efb","67949641171f97c04e14fb34","6795196ba7bd536b8d14fe82","","null","<img id='selected' src='G_3.jpg' height='90'> <img src='G_7.jpg' height='90'> <img src='G_1.jpg' height='90'> <img src='G_9.jpg' height='90'> <img src='G_5.jpg' height='90'>","null","Learning example 0",""
"","","","","","html-button-response","33","121807","0.0-26.0","42","1","2025-01-25 17:06:12","af8d355d56820e421d246a7037deb6e6","172.56.41.186","Mozilla/5.0 (Macintosh; Intel Mac OS X 10.15; rv:134.0) Gecko/20100101 Firefox/134.0","Macintosh","Firefox","134.0","OS X","10.15","https://app.prolific.com/","en-US,en;q=0.5","6774ed8fea9a49a640664efb","67949641171f97c04e14fb34","6795196ba7bd536b8d14fe82","","null","<img id='selected' src='G_3.jpg' height='90'> <img id='selected' src='G_7.jpg' height='90'> <img src='G_1.jpg' height='90'> <img src='G_9.jpg' height='90'> <img src='G_5.jpg' height='90'>","null","Learning example 0",""
"","","","","","html-button-response","34","122112","0.0-27.0","42","1","2025-01-25 17:06:12","af8d355d56820e421d246a7037deb6e6","172.56.41.186","Mozilla/5.0 (Macintosh; Intel Mac OS X 10.15; rv:134.0) Gecko/20100101 Firefox/134.0","Macintosh","Firefox","134.0","OS X","10.15","https://app.prolific.com/","en-US,en;q=0.5","6774ed8fea9a49a640664efb","67949641171f97c04e14fb34","6795196ba7bd536b8d14fe82","","null","<img id='swapped' src='G_7.jpg' height='90'> <img id='swapped' src='G_3.jpg' height='90'> <img src='G_1.jpg' height='90'> <img src='G_9.jpg' height='90'> <img src='G_5.jpg' height='90'>","null","Learning example 0",""
"","","","","","html-button-response","35","130936","0.0-28.0-0.0-0.0","42","1","2025-01-25 17:06:12","af8d355d56820e421d246a7037deb6e6","172.56.41.186","Mozilla/5.0 (Macintosh; Intel Mac OS X 10.15; rv:134.0) Gecko/20100101 Firefox/134.0","Macintosh","Firefox","134.0","OS X","10.15","https://app.prolific.com/","en-US,en;q=0.5","6774ed8fea9a49a640664efb","67949641171f97c04e14fb34","6795196ba7bd536b8d14fe82","","8816","<img id='swapped' src='G_7.jpg' height='90'> <img id='swapped' src='G_3.jpg' height='90'> <img src='G_1.jpg' height='90'> <img src='G_9.jpg' height='90'> <img src='G_5.jpg' height='90'>","0","Learning example 0",""
"","","","","","html-button-response","36","131599","0.0-28.1-0.1-0.1","42","1","2025-01-25 17:06:12","af8d355d56820e421d246a7037deb6e6","172.56.41.186","Mozilla/5.0 (Macintosh; Intel Mac OS X 10.15; rv:134.0) Gecko/20100101 Firefox/134.0","Macintosh","Firefox","134.0","OS X","10.15","https://app.prolific.com/","en-US,en;q=0.5","6774ed8fea9a49a640664efb","67949641171f97c04e14fb34","6795196ba7bd536b8d14fe82","","656","<img id='swapped' src='G_7.jpg' height='90'> <img id='swapped' src='G_3.jpg' height='90'> <img src='G_1.jpg' height='90'> <img src='G_9.jpg' height='90'> <img src='G_5.jpg' height='90'>","1","Learning example 0",""
"","","","","","html-button-response","37","131803","0.0-29.0","42","1","2025-01-25 17:06:12","af8d355d56820e421d246a7037deb6e6","172.56.41.186","Mozilla/5.0 (Macintosh; Intel Mac OS X 10.15; rv:134.0) Gecko/20100101 Firefox/134.0","Macintosh","Firefox","134.0","OS X","10.15","https://app.prolific.com/","en-US,en;q=0.5","6774ed8fea9a49a640664efb","67949641171f97c04e14fb34","6795196ba7bd536b8d14fe82","","null","<img  src='G_7.jpg' height='90'> <img  src='G_3.jpg' height='90'> <img src='G_1.jpg' height='90'> <img src='G_9.jpg' height='90'> <img src='G_5.jpg' height='90'>","null","Learning example 0",""
"","","","","","html-button-response","38","132206","0.0-30.0","42","1","2025-01-25 17:06:12","af8d355d56820e421d246a7037deb6e6","172.56.41.186","Mozilla/5.0 (Macintosh; Intel Mac OS X 10.15; rv:134.0) Gecko/20100101 Firefox/134.0","Macintosh","Firefox","134.0","OS X","10.15","https://app.prolific.com/","en-US,en;q=0.5","6774ed8fea9a49a640664efb","67949641171f97c04e14fb34","6795196ba7bd536b8d14fe82","","null","<img  src='G_7.jpg' height='90'> <img id='selected'  src='G_3.jpg' height='90'> <img src='G_1.jpg' height='90'> <img src='G_9.jpg' height='90'> <img src='G_5.jpg' height='90'>","null","Learning example 0",""
"","","","","","html-button-response","39","132509","0.0-31.0","42","1","2025-01-25 17:06:12","af8d355d56820e421d246a7037deb6e6","172.56.41.186","Mozilla/5.0 (Macintosh; Intel Mac OS X 10.15; rv:134.0) Gecko/20100101 Firefox/134.0","Macintosh","Firefox","134.0","OS X","10.15","https://app.prolific.com/","en-US,en;q=0.5","6774ed8fea9a49a640664efb","67949641171f97c04e14fb34","6795196ba7bd536b8d14fe82","","null","<img  src='G_7.jpg' height='90'> <img id='selected'  src='G_3.jpg' height='90'> <img id='selected' src='G_1.jpg' height='90'> <img src='G_9.jpg' height='90'> <img src='G_5.jpg' height='90'>","null","Learning example 0",""
"","","","","","html-button-response","40","132816","0.0-32.0","42","1","2025-01-25 17:06:12","af8d355d56820e421d246a7037deb6e6","172.56.41.186","Mozilla/5.0 (Macintosh; Intel Mac OS X 10.15; rv:134.0) Gecko/20100101 Firefox/134.0","Macintosh","Firefox","134.0","OS X","10.15","https://app.prolific.com/","en-US,en;q=0.5","6774ed8fea9a49a640664efb","67949641171f97c04e14fb34","6795196ba7bd536b8d14fe82","","null","<img  src='G_7.jpg' height='90'> <img id='selected'  src='G_3.jpg' height='90'> <img id='selected' src='G_1.jpg' height='90'> <img src='G_9.jpg' height='90'> <img src='G_5.jpg' height='90'>","null","Learning example 0",""
"","","","","","html-button-response","41","136852","0.0-33.0-0.0-0.0","42","1","2025-01-25 17:06:12","af8d355d56820e421d246a7037deb6e6","172.56.41.186","Mozilla/5.0 (Macintosh; Intel Mac OS X 10.15; rv:134.0) Gecko/20100101 Firefox/134.0","Macintosh","Firefox","134.0","OS X","10.15","https://app.prolific.com/","en-US,en;q=0.5","6774ed8fea9a49a640664efb","67949641171f97c04e14fb34","6795196ba7bd536b8d14fe82","","4032","<img  src='G_7.jpg' height='90'> <img id='selected'  src='G_3.jpg' height='90'> <img id='selected' src='G_1.jpg' height='90'> <img src='G_9.jpg' height='90'> <img src='G_5.jpg' height='90'>","1","Learning example 0",""
"","","","","","html-button-response","42","137340","0.0-33.1-0.1-0.1","42","1","2025-01-25 17:06:12","af8d355d56820e421d246a7037deb6e6","172.56.41.186","Mozilla/5.0 (Macintosh; Intel Mac OS X 10.15; rv:134.0) Gecko/20100101 Firefox/134.0","Macintosh","Firefox","134.0","OS X","10.15","https://app.prolific.com/","en-US,en;q=0.5","6774ed8fea9a49a640664efb","67949641171f97c04e14fb34","6795196ba7bd536b8d14fe82","","484","<img  src='G_7.jpg' height='90'> <img id='selected'  src='G_3.jpg' height='90'> <img id='selected' src='G_1.jpg' height='90'> <img src='G_9.jpg' height='90'> <img src='G_5.jpg' height='90'>","2","Learning example 0",""
"","","","","","html-button-response","43","137543","0.0-34.0","42","1","2025-01-25 17:06:12","af8d355d56820e421d246a7037deb6e6","172.56.41.186","Mozilla/5.0 (Macintosh; Intel Mac OS X 10.15; rv:134.0) Gecko/20100101 Firefox/134.0","Macintosh","Firefox","134.0","OS X","10.15","https://app.prolific.com/","en-US,en;q=0.5","6774ed8fea9a49a640664efb","67949641171f97c04e14fb34","6795196ba7bd536b8d14fe82","","null","<img  src='G_7.jpg' height='90'> <img   src='G_3.jpg' height='90'> <img  src='G_1.jpg' height='90'> <img src='G_9.jpg' height='90'> <img src='G_5.jpg' height='90'>","null","Learning example 0",""
"","","","","","html-button-response","44","137948","0.0-35.0","42","1","2025-01-25 17:06:12","af8d355d56820e421d246a7037deb6e6","172.56.41.186","Mozilla/5.0 (Macintosh; Intel Mac OS X 10.15; rv:134.0) Gecko/20100101 Firefox/134.0","Macintosh","Firefox","134.0","OS X","10.15","https://app.prolific.com/","en-US,en;q=0.5","6774ed8fea9a49a640664efb","67949641171f97c04e14fb34","6795196ba7bd536b8d14fe82","","null","<img  src='G_7.jpg' height='90'> <img   src='G_3.jpg' height='90'> <img id='selected'  src='G_1.jpg' height='90'> <img src='G_9.jpg' height='90'> <img src='G_5.jpg' height='90'>","null","Learning example 0",""
"","","","","","html-button-response","45","138251","0.0-36.0","42","1","2025-01-25 17:06:12","af8d355d56820e421d246a7037deb6e6","172.56.41.186","Mozilla/5.0 (Macintosh; Intel Mac OS X 10.15; rv:134.0) Gecko/20100101 Firefox/134.0","Macintosh","Firefox","134.0","OS X","10.15","https://app.prolific.com/","en-US,en;q=0.5","6774ed8fea9a49a640664efb","67949641171f97c04e14fb34","6795196ba7bd536b8d14fe82","","null","<img  src='G_7.jpg' height='90'> <img   src='G_3.jpg' height='90'> <img id='selected'  src='G_1.jpg' height='90'> <img id='selected' src='G_9.jpg' height='90'> <img src='G_5.jpg' height='90'>","null","Learning example 0",""
"","","","","","html-button-response","46","138553","0.0-37.0","42","1","2025-01-25 17:06:12","af8d355d56820e421d246a7037deb6e6","172.56.41.186","Mozilla/5.0 (Macintosh; Intel Mac OS X 10.15; rv:134.0) Gecko/20100101 Firefox/134.0","Macintosh","Firefox","134.0","OS X","10.15","https://app.prolific.com/","en-US,en;q=0.5","6774ed8fea9a49a640664efb","67949641171f97c04e14fb34","6795196ba7bd536b8d14fe82","","null","<img  src='G_7.jpg' height='90'> <img   src='G_3.jpg' height='90'> <img id='selected'  src='G_1.jpg' height='90'> <img id='selected' src='G_9.jpg' height='90'> <img src='G_5.jpg' height='90'>","null","Learning example 0",""
"","","","","","html-button-response","47","139389","0.0-38.0-0.0-0.0","42","1","2025-01-25 17:06:12","af8d355d56820e421d246a7037deb6e6","172.56.41.186","Mozilla/5.0 (Macintosh; Intel Mac OS X 10.15; rv:134.0) Gecko/20100101 Firefox/134.0","Macintosh","Firefox","134.0","OS X","10.15","https://app.prolific.com/","en-US,en;q=0.5","6774ed8fea9a49a640664efb","67949641171f97c04e14fb34","6795196ba7bd536b8d14fe82","","835","<img  src='G_7.jpg' height='90'> <img   src='G_3.jpg' height='90'> <img id='selected'  src='G_1.jpg' height='90'> <img id='selected' src='G_9.jpg' height='90'> <img src='G_5.jpg' height='90'>","2","Learning example 0",""
"","","","","","html-button-response","48","139786","0.0-38.1-0.1-0.1","42","1","2025-01-25 17:06:12","af8d355d56820e421d246a7037deb6e6","172.56.41.186","Mozilla/5.0 (Macintosh; Intel Mac OS X 10.15; rv:134.0) Gecko/20100101 Firefox/134.0","Macintosh","Firefox","134.0","OS X","10.15","https://app.prolific.com/","en-US,en;q=0.5","6774ed8fea9a49a640664efb","67949641171f97c04e14fb34","6795196ba7bd536b8d14fe82","","391","<img  src='G_7.jpg' height='90'> <img   src='G_3.jpg' height='90'> <img id='selected'  src='G_1.jpg' height='90'> <img id='selected' src='G_9.jpg' height='90'> <img src='G_5.jpg' height='90'>","3","Learning example 0",""
"","","","","","html-button-response","49","139990","0.0-39.0","42","1","2025-01-25 17:06:12","af8d355d56820e421d246a7037deb6e6","172.56.41.186","Mozilla/5.0 (Macintosh; Intel Mac OS X 10.15; rv:134.0) Gecko/20100101 Firefox/134.0","Macintosh","Firefox","134.0","OS X","10.15","https://app.prolific.com/","en-US,en;q=0.5","6774ed8fea9a49a640664efb","67949641171f97c04e14fb34","6795196ba7bd536b8d14fe82","","null","<img  src='G_7.jpg' height='90'> <img   src='G_3.jpg' height='90'> <img   src='G_1.jpg' height='90'> <img  src='G_9.jpg' height='90'> <img src='G_5.jpg' height='90'>","null","Learning example 0",""
"","","","","","html-button-response","50","140396","0.0-40.0","42","1","2025-01-25 17:06:12","af8d355d56820e421d246a7037deb6e6","172.56.41.186","Mozilla/5.0 (Macintosh; Intel Mac OS X 10.15; rv:134.0) Gecko/20100101 Firefox/134.0","Macintosh","Firefox","134.0","OS X","10.15","https://app.prolific.com/","en-US,en;q=0.5","6774ed8fea9a49a640664efb","67949641171f97c04e14fb34","6795196ba7bd536b8d14fe82","","null","<img  src='G_7.jpg' height='90'> <img   src='G_3.jpg' height='90'> <img   src='G_1.jpg' height='90'> <img id='selected'  src='G_9.jpg' height='90'> <img src='G_5.jpg' height='90'>","null","Learning example 0",""
"","","","","","html-button-response","51","140700","0.0-41.0","42","1","2025-01-25 17:06:12","af8d355d56820e421d246a7037deb6e6","172.56.41.186","Mozilla/5.0 (Macintosh; Intel Mac OS X 10.15; rv:134.0) Gecko/20100101 Firefox/134.0","Macintosh","Firefox","134.0","OS X","10.15","https://app.prolific.com/","en-US,en;q=0.5","6774ed8fea9a49a640664efb","67949641171f97c04e14fb34","6795196ba7bd536b8d14fe82","","null","<img  src='G_7.jpg' height='90'> <img   src='G_3.jpg' height='90'> <img   src='G_1.jpg' height='90'> <img id='selected'  src='G_9.jpg' height='90'> <img id='selected' src='G_5.jpg' height='90'>","null","Learning example 0",""
"","","","","","html-button-response","52","141007","0.0-42.0","42","1","2025-01-25 17:06:12","af8d355d56820e421d246a7037deb6e6","172.56.41.186","Mozilla/5.0 (Macintosh; Intel Mac OS X 10.15; rv:134.0) Gecko/20100101 Firefox/134.0","Macintosh","Firefox","134.0","OS X","10.15","https://app.prolific.com/","en-US,en;q=0.5","6774ed8fea9a49a640664efb","67949641171f97c04e14fb34","6795196ba7bd536b8d14fe82","","null","<img  src='G_7.jpg' height='90'> <img   src='G_3.jpg' height='90'> <img   src='G_1.jpg' height='90'> <img id='selected'  src='G_9.jpg' height='90'> <img id='selected' src='G_5.jpg' height='90'>","null","Learning example 0",""
"","","","","","html-button-response","53","141602","0.0-43.0-0.0-0.0","42","1","2025-01-25 17:06:12","af8d355d56820e421d246a7037deb6e6","172.56.41.186","Mozilla/5.0 (Macintosh; Intel Mac OS X 10.15; rv:134.0) Gecko/20100101 Firefox/134.0","Macintosh","Firefox","134.0","OS X","10.15","https://app.prolific.com/","en-US,en;q=0.5","6774ed8fea9a49a640664efb","67949641171f97c04e14fb34","6795196ba7bd536b8d14fe82","","591","<img  src='G_7.jpg' height='90'> <img   src='G_3.jpg' height='90'> <img   src='G_1.jpg' height='90'> <img id='selected'  src='G_9.jpg' height='90'> <img id='selected' src='G_5.jpg' height='90'>","3","Learning example 0",""
"","","","","","html-button-response","54","142152","0.0-43.1-0.1-0.1","42","1","2025-01-25 17:06:12","af8d355d56820e421d246a7037deb6e6","172.56.41.186","Mozilla/5.0 (Macintosh; Intel Mac OS X 10.15; rv:134.0) Gecko/20100101 Firefox/134.0","Macintosh","Firefox","134.0","OS X","10.15","https://app.prolific.com/","en-US,en;q=0.5","6774ed8fea9a49a640664efb","67949641171f97c04e14fb34","6795196ba7bd536b8d14fe82","","547","<img  src='G_7.jpg' height='90'> <img   src='G_3.jpg' height='90'> <img   src='G_1.jpg' height='90'> <img id='selected'  src='G_9.jpg' height='90'> <img id='selected' src='G_5.jpg' height='90'>","4","Learning example 0",""
"","","","","","html-button-response","55","142356","0.0-44.0","42","1","2025-01-25 17:06:12","af8d355d56820e421d246a7037deb6e6","172.56.41.186","Mozilla/5.0 (Macintosh; Intel Mac OS X 10.15; rv:134.0) Gecko/20100101 Firefox/134.0","Macintosh","Firefox","134.0","OS X","10.15","https://app.prolific.com/","en-US,en;q=0.5","6774ed8fea9a49a640664efb","67949641171f97c04e14fb34","6795196ba7bd536b8d14fe82","","null","<img  src='G_7.jpg' height='90'> <img   src='G_3.jpg' height='90'> <img   src='G_1.jpg' height='90'> <img   src='G_9.jpg' height='90'> <img  src='G_5.jpg' height='90'>","null","Learning example 0",""
"","","","","","html-keyboard-response","56","149880","0.0-45.0","42","1","2025-01-25 17:06:12","af8d355d56820e421d246a7037deb6e6","172.56.41.186","Mozilla/5.0 (Macintosh; Intel Mac OS X 10.15; rv:134.0) Gecko/20100101 Firefox/134.0","Macintosh","Firefox","134.0","OS X","10.15","https://app.prolific.com/","en-US,en;q=0.5","6774ed8fea9a49a640664efb","67949641171f97c04e14fb34","6795196ba7bd536b8d14fe82","","7521","[""Final order was 1,2,3,4,5. The initial order was 2,1,3,4,5.<br>It took 1 swaps to sort it correctly with Omgne Sort. <br><br>Press Enter to continue.""]","enter","",""
"","","","","","html-keyboard-response","57","152563","0.0-46.0","42","1","2025-01-25 17:06:12","af8d355d56820e421d246a7037deb6e6","172.56.41.186","Mozilla/5.0 (Macintosh; Intel Mac OS X 10.15; rv:134.0) Gecko/20100101 Firefox/134.0","Macintosh","Firefox","134.0","OS X","10.15","https://app.prolific.com/","en-US,en;q=0.5","6774ed8fea9a49a640664efb","67949641171f97c04e14fb34","6795196ba7bd536b8d14fe82","","2681","[""Example 2<br><br>You will watch Omnge Sort in action. Try to identify any patterns in the comparisons made by this method. <br><br>Press Enter to continue.""]","enter","",""
"","","","","","html-keyboard-response","58","153071","0.0-47.0","42","1","2025-01-25 17:06:12","af8d355d56820e421d246a7037deb6e6","172.56.41.186","Mozilla/5.0 (Macintosh; Intel Mac OS X 10.15; rv:134.0) Gecko/20100101 Firefox/134.0","Macintosh","Firefox","134.0","OS X","10.15","https://app.prolific.com/","en-US,en;q=0.5","6774ed8fea9a49a640664efb","67949641171f97c04e14fb34","6795196ba7bd536b8d14fe82","","null","<img id='selected' src='G_7.jpg' height='90'> <img src='G_1.jpg' height='90'> <img src='G_4.jpg' height='90'> <img src='G_8.jpg' height='90'> <img src='G_3.jpg' height='90'> <img src='G_2.jpg' height='90'> <img src='G_5.jpg' height='90'> <img src='G_6.jpg' height='90'>","null","Animation1",""
"","","","","","html-keyboard-response","59","153575","0.0-48.0","42","1","2025-01-25 17:06:12","af8d355d56820e421d246a7037deb6e6","172.56.41.186","Mozilla/5.0 (Macintosh; Intel Mac OS X 10.15; rv:134.0) Gecko/20100101 Firefox/134.0","Macintosh","Firefox","134.0","OS X","10.15","https://app.prolific.com/","en-US,en;q=0.5","6774ed8fea9a49a640664efb","67949641171f97c04e14fb34","6795196ba7bd536b8d14fe82","","null","<img id='selected' src='G_7.jpg' height='90'> <img id='selected' src='G_1.jpg' height='90'> <img src='G_4.jpg' height='90'> <img src='G_8.jpg' height='90'> <img src='G_3.jpg' height='90'> <img src='G_2.jpg' height='90'> <img src='G_5.jpg' height='90'> <img src='G_6.jpg' height='90'>","null","Animation1",""
"","","","","","html-keyboard-response","60","154080","0.0-49.0","42","1","2025-01-25 17:06:12","af8d355d56820e421d246a7037deb6e6","172.56.41.186","Mozilla/5.0 (Macintosh; Intel Mac OS X 10.15; rv:134.0) Gecko/20100101 Firefox/134.0","Macintosh","Firefox","134.0","OS X","10.15","https://app.prolific.com/","en-US,en;q=0.5","6774ed8fea9a49a640664efb","67949641171f97c04e14fb34","6795196ba7bd536b8d14fe82","","null","<img id='selected' src='G_7.jpg' height='90'> <img id='selected' src='G_1.jpg' height='90'> <img src='G_4.jpg' height='90'> <img src='G_8.jpg' height='90'> <img src='G_3.jpg' height='90'> <img src='G_2.jpg' height='90'> <img src='G_5.jpg' height='90'> <img src='G_6.jpg' height='90'>","null","Animation1",""
"","","","","","html-keyboard-response","61","154390","0.0-50.0","42","1","2025-01-25 17:06:12","af8d355d56820e421d246a7037deb6e6","172.56.41.186","Mozilla/5.0 (Macintosh; Intel Mac OS X 10.15; rv:134.0) Gecko/20100101 Firefox/134.0","Macintosh","Firefox","134.0","OS X","10.15","https://app.prolific.com/","en-US,en;q=0.5","6774ed8fea9a49a640664efb","67949641171f97c04e14fb34","6795196ba7bd536b8d14fe82","","null","<img  src='G_7.jpg' height='90'> <img  src='G_1.jpg' height='90'> <img src='G_4.jpg' height='90'> <img src='G_8.jpg' height='90'> <img src='G_3.jpg' height='90'> <img src='G_2.jpg' height='90'> <img src='G_5.jpg' height='90'> <img src='G_6.jpg' height='90'>","null","Animation1",""
"","","","","","html-keyboard-response","62","154897","0.0-51.0","42","1","2025-01-25 17:06:12","af8d355d56820e421d246a7037deb6e6","172.56.41.186","Mozilla/5.0 (Macintosh; Intel Mac OS X 10.15; rv:134.0) Gecko/20100101 Firefox/134.0","Macintosh","Firefox","134.0","OS X","10.15","https://app.prolific.com/","en-US,en;q=0.5","6774ed8fea9a49a640664efb","67949641171f97c04e14fb34","6795196ba7bd536b8d14fe82","","null","<img  src='G_7.jpg' height='90'> <img id='selected'  src='G_1.jpg' height='90'> <img src='G_4.jpg' height='90'> <img src='G_8.jpg' height='90'> <img src='G_3.jpg' height='90'> <img src='G_2.jpg' height='90'> <img src='G_5.jpg' height='90'> <img src='G_6.jpg' height='90'>","null","Animation1",""
"","","","","","html-keyboard-response","63","155400","0.0-52.0","42","1","2025-01-25 17:06:12","af8d355d56820e421d246a7037deb6e6","172.56.41.186","Mozilla/5.0 (Macintosh; Intel Mac OS X 10.15; rv:134.0) Gecko/20100101 Firefox/134.0","Macintosh","Firefox","134.0","OS X","10.15","https://app.prolific.com/","en-US,en;q=0.5","6774ed8fea9a49a640664efb","67949641171f97c04e14fb34","6795196ba7bd536b8d14fe82","","null","<img  src='G_7.jpg' height='90'> <img id='selected'  src='G_1.jpg' height='90'> <img id='selected' src='G_4.jpg' height='90'> <img src='G_8.jpg' height='90'> <img src='G_3.jpg' height='90'> <img src='G_2.jpg' height='90'> <img src='G_5.jpg' height='90'> <img src='G_6.jpg' height='90'>","null","Animation1",""
"","","","","","html-keyboard-response","64","155904","0.0-53.0","42","1","2025-01-25 17:06:12","af8d355d56820e421d246a7037deb6e6","172.56.41.186","Mozilla/5.0 (Macintosh; Intel Mac OS X 10.15; rv:134.0) Gecko/20100101 Firefox/134.0","Macintosh","Firefox","134.0","OS X","10.15","https://app.prolific.com/","en-US,en;q=0.5","6774ed8fea9a49a640664efb","67949641171f97c04e14fb34","6795196ba7bd536b8d14fe82","","null","<img  src='G_7.jpg' height='90'> <img id='swapped' src='G_4.jpg' height='90'> <img id='swapped'  src='G_1.jpg' height='90'> <img src='G_8.jpg' height='90'> <img src='G_3.jpg' height='90'> <img src='G_2.jpg' height='90'> <img src='G_5.jpg' height='90'> <img src='G_6.jpg' height='90'>","null","Animation1",""
"","","","","","html-keyboard-response","65","156206","0.0-54.0","42","1","2025-01-25 17:06:12","af8d355d56820e421d246a7037deb6e6","172.56.41.186","Mozilla/5.0 (Macintosh; Intel Mac OS X 10.15; rv:134.0) Gecko/20100101 Firefox/134.0","Macintosh","Firefox","134.0","OS X","10.15","https://app.prolific.com/","en-US,en;q=0.5","6774ed8fea9a49a640664efb","67949641171f97c04e14fb34","6795196ba7bd536b8d14fe82","","null","<img  src='G_7.jpg' height='90'> <img  src='G_4.jpg' height='90'> <img   src='G_1.jpg' height='90'> <img src='G_8.jpg' height='90'> <img src='G_3.jpg' height='90'> <img src='G_2.jpg' height='90'> <img src='G_5.jpg' height='90'> <img src='G_6.jpg' height='90'>","null","Animation1",""
"","","","","","html-keyboard-response","66","156711","0.0-55.0","42","1","2025-01-25 17:06:12","af8d355d56820e421d246a7037deb6e6","172.56.41.186","Mozilla/5.0 (Macintosh; Intel Mac OS X 10.15; rv:134.0) Gecko/20100101 Firefox/134.0","Macintosh","Firefox","134.0","OS X","10.15","https://app.prolific.com/","en-US,en;q=0.5","6774ed8fea9a49a640664efb","67949641171f97c04e14fb34","6795196ba7bd536b8d14fe82","","null","<img id='selected'  src='G_7.jpg' height='90'> <img  src='G_4.jpg' height='90'> <img   src='G_1.jpg' height='90'> <img src='G_8.jpg' height='90'> <img src='G_3.jpg' height='90'> <img src='G_2.jpg' height='90'> <img src='G_5.jpg' height='90'> <img src='G_6.jpg' height='90'>","null","Animation1",""
"","","","","","html-keyboard-response","67","157218","0.0-56.0","42","1","2025-01-25 17:06:12","af8d355d56820e421d246a7037deb6e6","172.56.41.186","Mozilla/5.0 (Macintosh; Intel Mac OS X 10.15; rv:134.0) Gecko/20100101 Firefox/134.0","Macintosh","Firefox","134.0","OS X","10.15","https://app.prolific.com/","en-US,en;q=0.5","6774ed8fea9a49a640664efb","67949641171f97c04e14fb34","6795196ba7bd536b8d14fe82","","null","<img id='selected'  src='G_7.jpg' height='90'> <img id='selected'  src='G_4.jpg' height='90'> <img   src='G_1.jpg' height='90'> <img src='G_8.jpg' height='90'> <img src='G_3.jpg' height='90'> <img src='G_2.jpg' height='90'> <img src='G_5.jpg' height='90'> <img src='G_6.jpg' height='90'>","null","Animation1",""
"","","","","","html-keyboard-response","68","157727","0.0-57.0","42","1","2025-01-25 17:06:12","af8d355d56820e421d246a7037deb6e6","172.56.41.186","Mozilla/5.0 (Macintosh; Intel Mac OS X 10.15; rv:134.0) Gecko/20100101 Firefox/134.0","Macintosh","Firefox","134.0","OS X","10.15","https://app.prolific.com/","en-US,en;q=0.5","6774ed8fea9a49a640664efb","67949641171f97c04e14fb34","6795196ba7bd536b8d14fe82","","null","<img id='swapped'  src='G_4.jpg' height='90'> <img id='swapped'  src='G_7.jpg' height='90'> <img   src='G_1.jpg' height='90'> <img src='G_8.jpg' height='90'> <img src='G_3.jpg' height='90'> <img src='G_2.jpg' height='90'> <img src='G_5.jpg' height='90'> <img src='G_6.jpg' height='90'>","null","Animation1",""
"","","","","","html-keyboard-response","69","158031","0.0-58.0","42","1","2025-01-25 17:06:12","af8d355d56820e421d246a7037deb6e6","172.56.41.186","Mozilla/5.0 (Macintosh; Intel Mac OS X 10.15; rv:134.0) Gecko/20100101 Firefox/134.0","Macintosh","Firefox","134.0","OS X","10.15","https://app.prolific.com/","en-US,en;q=0.5","6774ed8fea9a49a640664efb","67949641171f97c04e14fb34","6795196ba7bd536b8d14fe82","","null","<img   src='G_4.jpg' height='90'> <img   src='G_7.jpg' height='90'> <img   src='G_1.jpg' height='90'> <img src='G_8.jpg' height='90'> <img src='G_3.jpg' height='90'> <img src='G_2.jpg' height='90'> <img src='G_5.jpg' height='90'> <img src='G_6.jpg' height='90'>","null","Animation1",""
"","","","","","html-keyboard-response","70","158538","0.0-59.0","42","1","2025-01-25 17:06:12","af8d355d56820e421d246a7037deb6e6","172.56.41.186","Mozilla/5.0 (Macintosh; Intel Mac OS X 10.15; rv:134.0) Gecko/20100101 Firefox/134.0","Macintosh","Firefox","134.0","OS X","10.15","https://app.prolific.com/","en-US,en;q=0.5","6774ed8fea9a49a640664efb","67949641171f97c04e14fb34","6795196ba7bd536b8d14fe82","","null","<img   src='G_4.jpg' height='90'> <img   src='G_7.jpg' height='90'> <img id='selected'   src='G_1.jpg' height='90'> <img src='G_8.jpg' height='90'> <img src='G_3.jpg' height='90'> <img src='G_2.jpg' height='90'> <img src='G_5.jpg' height='90'> <img src='G_6.jpg' height='90'>","null","Animation1",""
"","","","","","html-keyboard-response","71","159046","0.0-60.0","42","1","2025-01-25 17:06:12","af8d355d56820e421d246a7037deb6e6","172.56.41.186","Mozilla/5.0 (Macintosh; Intel Mac OS X 10.15; rv:134.0) Gecko/20100101 Firefox/134.0","Macintosh","Firefox","134.0","OS X","10.15","https://app.prolific.com/","en-US,en;q=0.5","6774ed8fea9a49a640664efb","67949641171f97c04e14fb34","6795196ba7bd536b8d14fe82","","null","<img   src='G_4.jpg' height='90'> <img   src='G_7.jpg' height='90'> <img id='selected'   src='G_1.jpg' height='90'> <img id='selected' src='G_8.jpg' height='90'> <img src='G_3.jpg' height='90'> <img src='G_2.jpg' height='90'> <img src='G_5.jpg' height='90'> <img src='G_6.jpg' height='90'>","null","Animation1",""
"","","","","","html-keyboard-response","72","159553","0.0-61.0","42","1","2025-01-25 17:06:12","af8d355d56820e421d246a7037deb6e6","172.56.41.186","Mozilla/5.0 (Macintosh; Intel Mac OS X 10.15; rv:134.0) Gecko/20100101 Firefox/134.0","Macintosh","Firefox","134.0","OS X","10.15","https://app.prolific.com/","en-US,en;q=0.5","6774ed8fea9a49a640664efb","67949641171f97c04e14fb34","6795196ba7bd536b8d14fe82","","null","<img   src='G_4.jpg' height='90'> <img   src='G_7.jpg' height='90'> <img id='swapped' src='G_8.jpg' height='90'> <img id='swapped'   src='G_1.jpg' height='90'> <img src='G_3.jpg' height='90'> <img src='G_2.jpg' height='90'> <img src='G_5.jpg' height='90'> <img src='G_6.jpg' height='90'>","null","Animation1",""
"","","","","","html-keyboard-response","73","159857","0.0-62.0","42","1","2025-01-25 17:06:12","af8d355d56820e421d246a7037deb6e6","172.56.41.186","Mozilla/5.0 (Macintosh; Intel Mac OS X 10.15; rv:134.0) Gecko/20100101 Firefox/134.0","Macintosh","Firefox","134.0","OS X","10.15","https://app.prolific.com/","en-US,en;q=0.5","6774ed8fea9a49a640664efb","67949641171f97c04e14fb34","6795196ba7bd536b8d14fe82","","null","<img   src='G_4.jpg' height='90'> <img   src='G_7.jpg' height='90'> <img  src='G_8.jpg' height='90'> <img    src='G_1.jpg' height='90'> <img src='G_3.jpg' height='90'> <img src='G_2.jpg' height='90'> <img src='G_5.jpg' height='90'> <img src='G_6.jpg' height='90'>","null","Animation1",""
"","","","","","html-keyboard-response","74","160361","0.0-63.0","42","1","2025-01-25 17:06:12","af8d355d56820e421d246a7037deb6e6","172.56.41.186","Mozilla/5.0 (Macintosh; Intel Mac OS X 10.15; rv:134.0) Gecko/20100101 Firefox/134.0","Macintosh","Firefox","134.0","OS X","10.15","https://app.prolific.com/","en-US,en;q=0.5","6774ed8fea9a49a640664efb","67949641171f97c04e14fb34","6795196ba7bd536b8d14fe82","","null","<img   src='G_4.jpg' height='90'> <img id='selected'   src='G_7.jpg' height='90'> <img  src='G_8.jpg' height='90'> <img    src='G_1.jpg' height='90'> <img src='G_3.jpg' height='90'> <img src='G_2.jpg' height='90'> <img src='G_5.jpg' height='90'> <img src='G_6.jpg' height='90'>","null","Animation1",""
"","","","","","html-keyboard-response","75","160865","0.0-64.0","42","1","2025-01-25 17:06:12","af8d355d56820e421d246a7037deb6e6","172.56.41.186","Mozilla/5.0 (Macintosh; Intel Mac OS X 10.15; rv:134.0) Gecko/20100101 Firefox/134.0","Macintosh","Firefox","134.0","OS X","10.15","https://app.prolific.com/","en-US,en;q=0.5","6774ed8fea9a49a640664efb","67949641171f97c04e14fb34","6795196ba7bd536b8d14fe82","","null","<img   src='G_4.jpg' height='90'> <img id='selected'   src='G_7.jpg' height='90'> <img id='selected'  src='G_8.jpg' height='90'> <img    src='G_1.jpg' height='90'> <img src='G_3.jpg' height='90'> <img src='G_2.jpg' height='90'> <img src='G_5.jpg' height='90'> <img src='G_6.jpg' height='90'>","null","Animation1",""
"","","","","","html-keyboard-response","76","161371","0.0-65.0","42","1","2025-01-25 17:06:12","af8d355d56820e421d246a7037deb6e6","172.56.41.186","Mozilla/5.0 (Macintosh; Intel Mac OS X 10.15; rv:134.0) Gecko/20100101 Firefox/134.0","Macintosh","Firefox","134.0","OS X","10.15","https://app.prolific.com/","en-US,en;q=0.5","6774ed8fea9a49a640664efb","67949641171f97c04e14fb34","6795196ba7bd536b8d14fe82","","null","<img   src='G_4.jpg' height='90'> <img id='swapped'  src='G_8.jpg' height='90'> <img id='swapped'   src='G_7.jpg' height='90'> <img    src='G_1.jpg' height='90'> <img src='G_3.jpg' height='90'> <img src='G_2.jpg' height='90'> <img src='G_5.jpg' height='90'> <img src='G_6.jpg' height='90'>","null","Animation1",""
"","","","","","html-keyboard-response","77","161677","0.0-66.0","42","1","2025-01-25 17:06:12","af8d355d56820e421d246a7037deb6e6","172.56.41.186","Mozilla/5.0 (Macintosh; Intel Mac OS X 10.15; rv:134.0) Gecko/20100101 Firefox/134.0","Macintosh","Firefox","134.0","OS X","10.15","https://app.prolific.com/","en-US,en;q=0.5","6774ed8fea9a49a640664efb","67949641171f97c04e14fb34","6795196ba7bd536b8d14fe82","","null","<img   src='G_4.jpg' height='90'> <img   src='G_8.jpg' height='90'> <img    src='G_7.jpg' height='90'> <img    src='G_1.jpg' height='90'> <img src='G_3.jpg' height='90'> <img src='G_2.jpg' height='90'> <img src='G_5.jpg' height='90'> <img src='G_6.jpg' height='90'>","null","Animation1",""
"","","","","","html-keyboard-response","78","162188","0.0-67.0","42","1","2025-01-25 17:06:12","af8d355d56820e421d246a7037deb6e6","172.56.41.186","Mozilla/5.0 (Macintosh; Intel Mac OS X 10.15; rv:134.0) Gecko/20100101 Firefox/134.0","Macintosh","Firefox","134.0","OS X","10.15","https://app.prolific.com/","en-US,en;q=0.5","6774ed8fea9a49a640664efb","67949641171f97c04e14fb34","6795196ba7bd536b8d14fe82","","null","<img id='selected'   src='G_4.jpg' height='90'> <img   src='G_8.jpg' height='90'> <img    src='G_7.jpg' height='90'> <img    src='G_1.jpg' height='90'> <img src='G_3.jpg' height='90'> <img src='G_2.jpg' height='90'> <img src='G_5.jpg' height='90'> <img src='G_6.jpg' height='90'>","null","Animation1",""
"","","","","","html-keyboard-response","79","162694","0.0-68.0","42","1","2025-01-25 17:06:12","af8d355d56820e421d246a7037deb6e6","172.56.41.186","Mozilla/5.0 (Macintosh; Intel Mac OS X 10.15; rv:134.0) Gecko/20100101 Firefox/134.0","Macintosh","Firefox","134.0","OS X","10.15","https://app.prolific.com/","en-US,en;q=0.5","6774ed8fea9a49a640664efb","67949641171f97c04e14fb34","6795196ba7bd536b8d14fe82","","null","<img id='selected'   src='G_4.jpg' height='90'> <img id='selected'   src='G_8.jpg' height='90'> <img    src='G_7.jpg' height='90'> <img    src='G_1.jpg' height='90'> <img src='G_3.jpg' height='90'> <img src='G_2.jpg' height='90'> <img src='G_5.jpg' height='90'> <img src='G_6.jpg' height='90'>","null","Animation1",""
"","","","","","html-keyboard-response","80","163200","0.0-69.0","42","1","2025-01-25 17:06:12","af8d355d56820e421d246a7037deb6e6","172.56.41.186","Mozilla/5.0 (Macintosh; Intel Mac OS X 10.15; rv:134.0) Gecko/20100101 Firefox/134.0","Macintosh","Firefox","134.0","OS X","10.15","https://app.prolific.com/","en-US,en;q=0.5","6774ed8fea9a49a640664efb","67949641171f97c04e14fb34","6795196ba7bd536b8d14fe82","","null","<img id='swapped'   src='G_8.jpg' height='90'> <img id='swapped'   src='G_4.jpg' height='90'> <img    src='G_7.jpg' height='90'> <img    src='G_1.jpg' height='90'> <img src='G_3.jpg' height='90'> <img src='G_2.jpg' height='90'> <img src='G_5.jpg' height='90'> <img src='G_6.jpg' height='90'>","null","Animation1",""
"","","","","","html-keyboard-response","81","163508","0.0-70.0","42","1","2025-01-25 17:06:12","af8d355d56820e421d246a7037deb6e6","172.56.41.186","Mozilla/5.0 (Macintosh; Intel Mac OS X 10.15; rv:134.0) Gecko/20100101 Firefox/134.0","Macintosh","Firefox","134.0","OS X","10.15","https://app.prolific.com/","en-US,en;q=0.5","6774ed8fea9a49a640664efb","67949641171f97c04e14fb34","6795196ba7bd536b8d14fe82","","null","<img    src='G_8.jpg' height='90'> <img    src='G_4.jpg' height='90'> <img    src='G_7.jpg' height='90'> <img    src='G_1.jpg' height='90'> <img src='G_3.jpg' height='90'> <img src='G_2.jpg' height='90'> <img src='G_5.jpg' height='90'> <img src='G_6.jpg' height='90'>","null","Animation1",""
"","","","","","html-keyboard-response","82","164013","0.0-71.0","42","1","2025-01-25 17:06:12","af8d355d56820e421d246a7037deb6e6","172.56.41.186","Mozilla/5.0 (Macintosh; Intel Mac OS X 10.15; rv:134.0) Gecko/20100101 Firefox/134.0","Macintosh","Firefox","134.0","OS X","10.15","https://app.prolific.com/","en-US,en;q=0.5","6774ed8fea9a49a640664efb","67949641171f97c04e14fb34","6795196ba7bd536b8d14fe82","","null","<img    src='G_8.jpg' height='90'> <img    src='G_4.jpg' height='90'> <img    src='G_7.jpg' height='90'> <img id='selected'    src='G_1.jpg' height='90'> <img src='G_3.jpg' height='90'> <img src='G_2.jpg' height='90'> <img src='G_5.jpg' height='90'> <img src='G_6.jpg' height='90'>","null","Animation1",""
"","","","","","html-keyboard-response","83","164516","0.0-72.0","42","1","2025-01-25 17:06:12","af8d355d56820e421d246a7037deb6e6","172.56.41.186","Mozilla/5.0 (Macintosh; Intel Mac OS X 10.15; rv:134.0) Gecko/20100101 Firefox/134.0","Macintosh","Firefox","134.0","OS X","10.15","https://app.prolific.com/","en-US,en;q=0.5","6774ed8fea9a49a640664efb","67949641171f97c04e14fb34","6795196ba7bd536b8d14fe82","","null","<img    src='G_8.jpg' height='90'> <img    src='G_4.jpg' height='90'> <img    src='G_7.jpg' height='90'> <img id='selected'    src='G_1.jpg' height='90'> <img id='selected' src='G_3.jpg' height='90'> <img src='G_2.jpg' height='90'> <img src='G_5.jpg' height='90'> <img src='G_6.jpg' height='90'>","null","Animation1",""
"","","","","","html-keyboard-response","84","165021","0.0-73.0","42","1","2025-01-25 17:06:12","af8d355d56820e421d246a7037deb6e6","172.56.41.186","Mozilla/5.0 (Macintosh; Intel Mac OS X 10.15; rv:134.0) Gecko/20100101 Firefox/134.0","Macintosh","Firefox","134.0","OS X","10.15","https://app.prolific.com/","en-US,en;q=0.5","6774ed8fea9a49a640664efb","67949641171f97c04e14fb34","6795196ba7bd536b8d14fe82","","null","<img    src='G_8.jpg' height='90'> <img    src='G_4.jpg' height='90'> <img    src='G_7.jpg' height='90'> <img id='swapped' src='G_3.jpg' height='90'> <img id='swapped'    src='G_1.jpg' height='90'> <img src='G_2.jpg' height='90'> <img src='G_5.jpg' height='90'> <img src='G_6.jpg' height='90'>","null","Animation1",""
"","","","","","html-keyboard-response","85","165326","0.0-74.0","42","1","2025-01-25 17:06:12","af8d355d56820e421d246a7037deb6e6","172.56.41.186","Mozilla/5.0 (Macintosh; Intel Mac OS X 10.15; rv:134.0) Gecko/20100101 Firefox/134.0","Macintosh","Firefox","134.0","OS X","10.15","https://app.prolific.com/","en-US,en;q=0.5","6774ed8fea9a49a640664efb","67949641171f97c04e14fb34","6795196ba7bd536b8d14fe82","","null","<img    src='G_8.jpg' height='90'> <img    src='G_4.jpg' height='90'> <img    src='G_7.jpg' height='90'> <img  src='G_3.jpg' height='90'> <img     src='G_1.jpg' height='90'> <img src='G_2.jpg' height='90'> <img src='G_5.jpg' height='90'> <img src='G_6.jpg' height='90'>","null","Animation1",""
"","","","","","html-keyboard-response","86","165832","0.0-75.0","42","1","2025-01-25 17:06:12","af8d355d56820e421d246a7037deb6e6","172.56.41.186","Mozilla/5.0 (Macintosh; Intel Mac OS X 10.15; rv:134.0) Gecko/20100101 Firefox/134.0","Macintosh","Firefox","134.0","OS X","10.15","https://app.prolific.com/","en-US,en;q=0.5","6774ed8fea9a49a640664efb","67949641171f97c04e14fb34","6795196ba7bd536b8d14fe82","","null","<img    src='G_8.jpg' height='90'> <img    src='G_4.jpg' height='90'> <img id='selected'    src='G_7.jpg' height='90'> <img  src='G_3.jpg' height='90'> <img     src='G_1.jpg' height='90'> <img src='G_2.jpg' height='90'> <img src='G_5.jpg' height='90'> <img src='G_6.jpg' height='90'>","null","Animation1",""
"","","","","","html-keyboard-response","87","166342","0.0-76.0","42","1","2025-01-25 17:06:12","af8d355d56820e421d246a7037deb6e6","172.56.41.186","Mozilla/5.0 (Macintosh; Intel Mac OS X 10.15; rv:134.0) Gecko/20100101 Firefox/134.0","Macintosh","Firefox","134.0","OS X","10.15","https://app.prolific.com/","en-US,en;q=0.5","6774ed8fea9a49a640664efb","67949641171f97c04e14fb34","6795196ba7bd536b8d14fe82","","null","<img    src='G_8.jpg' height='90'> <img    src='G_4.jpg' height='90'> <img id='selected'    src='G_7.jpg' height='90'> <img id='selected'  src='G_3.jpg' height='90'> <img     src='G_1.jpg' height='90'> <img src='G_2.jpg' height='90'> <img src='G_5.jpg' height='90'> <img src='G_6.jpg' height='90'>","null","Animation1",""
"","","","","","html-keyboard-response","88","166850","0.0-77.0","42","1","2025-01-25 17:06:12","af8d355d56820e421d246a7037deb6e6","172.56.41.186","Mozilla/5.0 (Macintosh; Intel Mac OS X 10.15; rv:134.0) Gecko/20100101 Firefox/134.0","Macintosh","Firefox","134.0","OS X","10.15","https://app.prolific.com/","en-US,en;q=0.5","6774ed8fea9a49a640664efb","67949641171f97c04e14fb34","6795196ba7bd536b8d14fe82","","null","<img    src='G_8.jpg' height='90'> <img    src='G_4.jpg' height='90'> <img id='swapped'  src='G_3.jpg' height='90'> <img id='swapped'    src='G_7.jpg' height='90'> <img     src='G_1.jpg' height='90'> <img src='G_2.jpg' height='90'> <img src='G_5.jpg' height='90'> <img src='G_6.jpg' height='90'>","null","Animation1",""
"","","","","","html-keyboard-response","89","167159","0.0-78.0","42","1","2025-01-25 17:06:12","af8d355d56820e421d246a7037deb6e6","172.56.41.186","Mozilla/5.0 (Macintosh; Intel Mac OS X 10.15; rv:134.0) Gecko/20100101 Firefox/134.0","Macintosh","Firefox","134.0","OS X","10.15","https://app.prolific.com/","en-US,en;q=0.5","6774ed8fea9a49a640664efb","67949641171f97c04e14fb34","6795196ba7bd536b8d14fe82","","null","<img    src='G_8.jpg' height='90'> <img    src='G_4.jpg' height='90'> <img   src='G_3.jpg' height='90'> <img     src='G_7.jpg' height='90'> <img     src='G_1.jpg' height='90'> <img src='G_2.jpg' height='90'> <img src='G_5.jpg' height='90'> <img src='G_6.jpg' height='90'>","null","Animation1",""
"","","","","","html-keyboard-response","90","167668","0.0-79.0","42","1","2025-01-25 17:06:12","af8d355d56820e421d246a7037deb6e6","172.56.41.186","Mozilla/5.0 (Macintosh; Intel Mac OS X 10.15; rv:134.0) Gecko/20100101 Firefox/134.0","Macintosh","Firefox","134.0","OS X","10.15","https://app.prolific.com/","en-US,en;q=0.5","6774ed8fea9a49a640664efb","67949641171f97c04e14fb34","6795196ba7bd536b8d14fe82","","null","<img    src='G_8.jpg' height='90'> <img id='selected'    src='G_4.jpg' height='90'> <img   src='G_3.jpg' height='90'> <img     src='G_7.jpg' height='90'> <img     src='G_1.jpg' height='90'> <img src='G_2.jpg' height='90'> <img src='G_5.jpg' height='90'> <img src='G_6.jpg' height='90'>","null","Animation1",""
"","","","","","html-keyboard-response","91","168179","0.0-80.0","42","1","2025-01-25 17:06:12","af8d355d56820e421d246a7037deb6e6","172.56.41.186","Mozilla/5.0 (Macintosh; Intel Mac OS X 10.15; rv:134.0) Gecko/20100101 Firefox/134.0","Macintosh","Firefox","134.0","OS X","10.15","https://app.prolific.com/","en-US,en;q=0.5","6774ed8fea9a49a640664efb","67949641171f97c04e14fb34","6795196ba7bd536b8d14fe82","","null","<img    src='G_8.jpg' height='90'> <img id='selected'    src='G_4.jpg' height='90'> <img id='selected'   src='G_3.jpg' height='90'> <img     src='G_7.jpg' height='90'> <img     src='G_1.jpg' height='90'> <img src='G_2.jpg' height='90'> <img src='G_5.jpg' height='90'> <img src='G_6.jpg' height='90'>","null","Animation1",""
"","","","","","html-keyboard-response","92","168689","0.0-81.0","42","1","2025-01-25 17:06:12","af8d355d56820e421d246a7037deb6e6","172.56.41.186","Mozilla/5.0 (Macintosh; Intel Mac OS X 10.15; rv:134.0) Gecko/20100101 Firefox/134.0","Macintosh","Firefox","134.0","OS X","10.15","https://app.prolific.com/","en-US,en;q=0.5","6774ed8fea9a49a640664efb","67949641171f97c04e14fb34","6795196ba7bd536b8d14fe82","","null","<img    src='G_8.jpg' height='90'> <img id='swapped'   src='G_3.jpg' height='90'> <img id='swapped'    src='G_4.jpg' height='90'> <img     src='G_7.jpg' height='90'> <img     src='G_1.jpg' height='90'> <img src='G_2.jpg' height='90'> <img src='G_5.jpg' height='90'> <img src='G_6.jpg' height='90'>","null","Animation1",""
"","","","","","html-keyboard-response","93","168997","0.0-82.0","42","1","2025-01-25 17:06:12","af8d355d56820e421d246a7037deb6e6","172.56.41.186","Mozilla/5.0 (Macintosh; Intel Mac OS X 10.15; rv:134.0) Gecko/20100101 Firefox/134.0","Macintosh","Firefox","134.0","OS X","10.15","https://app.prolific.com/","en-US,en;q=0.5","6774ed8fea9a49a640664efb","67949641171f97c04e14fb34","6795196ba7bd536b8d14fe82","","null","<img    src='G_8.jpg' height='90'> <img    src='G_3.jpg' height='90'> <img     src='G_4.jpg' height='90'> <img     src='G_7.jpg' height='90'> <img     src='G_1.jpg' height='90'> <img src='G_2.jpg' height='90'> <img src='G_5.jpg' height='90'> <img src='G_6.jpg' height='90'>","null","Animation1",""
"","","","","","html-keyboard-response","94","169507","0.0-83.0","42","1","2025-01-25 17:06:12","af8d355d56820e421d246a7037deb6e6","172.56.41.186","Mozilla/5.0 (Macintosh; Intel Mac OS X 10.15; rv:134.0) Gecko/20100101 Firefox/134.0","Macintosh","Firefox","134.0","OS X","10.15","https://app.prolific.com/","en-US,en;q=0.5","6774ed8fea9a49a640664efb","67949641171f97c04e14fb34","6795196ba7bd536b8d14fe82","","null","<img id='selected'    src='G_8.jpg' height='90'> <img    src='G_3.jpg' height='90'> <img     src='G_4.jpg' height='90'> <img     src='G_7.jpg' height='90'> <img     src='G_1.jpg' height='90'> <img src='G_2.jpg' height='90'> <img src='G_5.jpg' height='90'> <img src='G_6.jpg' height='90'>","null","Animation1",""
"","","","","","html-keyboard-response","95","170012","0.0-84.0","42","1","2025-01-25 17:06:12","af8d355d56820e421d246a7037deb6e6","172.56.41.186","Mozilla/5.0 (Macintosh; Intel Mac OS X 10.15; rv:134.0) Gecko/20100101 Firefox/134.0","Macintosh","Firefox","134.0","OS X","10.15","https://app.prolific.com/","en-US,en;q=0.5","6774ed8fea9a49a640664efb","67949641171f97c04e14fb34","6795196ba7bd536b8d14fe82","","null","<img id='selected'    src='G_8.jpg' height='90'> <img id='selected'    src='G_3.jpg' height='90'> <img     src='G_4.jpg' height='90'> <img     src='G_7.jpg' height='90'> <img     src='G_1.jpg' height='90'> <img src='G_2.jpg' height='90'> <img src='G_5.jpg' height='90'> <img src='G_6.jpg' height='90'>","null","Animation1",""
"","","","","","html-keyboard-response","96","170517","0.0-85.0","42","1","2025-01-25 17:06:12","af8d355d56820e421d246a7037deb6e6","172.56.41.186","Mozilla/5.0 (Macintosh; Intel Mac OS X 10.15; rv:134.0) Gecko/20100101 Firefox/134.0","Macintosh","Firefox","134.0","OS X","10.15","https://app.prolific.com/","en-US,en;q=0.5","6774ed8fea9a49a640664efb","67949641171f97c04e14fb34","6795196ba7bd536b8d14fe82","","null","<img id='selected'    src='G_8.jpg' height='90'> <img id='selected'    src='G_3.jpg' height='90'> <img     src='G_4.jpg' height='90'> <img     src='G_7.jpg' height='90'> <img     src='G_1.jpg' height='90'> <img src='G_2.jpg' height='90'> <img src='G_5.jpg' height='90'> <img src='G_6.jpg' height='90'>","null","Animation1",""
"","","","","","html-keyboard-response","97","170826","0.0-86.0","42","1","2025-01-25 17:06:12","af8d355d56820e421d246a7037deb6e6","172.56.41.186","Mozilla/5.0 (Macintosh; Intel Mac OS X 10.15; rv:134.0) Gecko/20100101 Firefox/134.0","Macintosh","Firefox","134.0","OS X","10.15","https://app.prolific.com/","en-US,en;q=0.5","6774ed8fea9a49a640664efb","67949641171f97c04e14fb34","6795196ba7bd536b8d14fe82","","null","<img     src='G_8.jpg' height='90'> <img     src='G_3.jpg' height='90'> <img     src='G_4.jpg' height='90'> <img     src='G_7.jpg' height='90'> <img     src='G_1.jpg' height='90'> <img src='G_2.jpg' height='90'> <img src='G_5.jpg' height='90'> <img src='G_6.jpg' height='90'>","null","Animation1",""
"","","","","","html-keyboard-response","98","171336","0.0-87.0","42","1","2025-01-25 17:06:12","af8d355d56820e421d246a7037deb6e6","172.56.41.186","Mozilla/5.0 (Macintosh; Intel Mac OS X 10.15; rv:134.0) Gecko/20100101 Firefox/134.0","Macintosh","Firefox","134.0","OS X","10.15","https://app.prolific.com/","en-US,en;q=0.5","6774ed8fea9a49a640664efb","67949641171f97c04e14fb34","6795196ba7bd536b8d14fe82","","null","<img     src='G_8.jpg' height='90'> <img     src='G_3.jpg' height='90'> <img     src='G_4.jpg' height='90'> <img     src='G_7.jpg' height='90'> <img id='selected'     src='G_1.jpg' height='90'> <img src='G_2.jpg' height='90'> <img src='G_5.jpg' height='90'> <img src='G_6.jpg' height='90'>","null","Animation1",""
"","","","","","html-keyboard-response","99","171845","0.0-88.0","42","1","2025-01-25 17:06:12","af8d355d56820e421d246a7037deb6e6","172.56.41.186","Mozilla/5.0 (Macintosh; Intel Mac OS X 10.15; rv:134.0) Gecko/20100101 Firefox/134.0","Macintosh","Firefox","134.0","OS X","10.15","https://app.prolific.com/","en-US,en;q=0.5","6774ed8fea9a49a640664efb","67949641171f97c04e14fb34","6795196ba7bd536b8d14fe82","","null","<img     src='G_8.jpg' height='90'> <img     src='G_3.jpg' height='90'> <img     src='G_4.jpg' height='90'> <img     src='G_7.jpg' height='90'> <img id='selected'     src='G_1.jpg' height='90'> <img id='selected' src='G_2.jpg' height='90'> <img src='G_5.jpg' height='90'> <img src='G_6.jpg' height='90'>","null","Animation1",""
"","","","","","html-keyboard-response","100","172353","0.0-89.0","42","1","2025-01-25 17:06:12","af8d355d56820e421d246a7037deb6e6","172.56.41.186","Mozilla/5.0 (Macintosh; Intel Mac OS X 10.15; rv:134.0) Gecko/20100101 Firefox/134.0","Macintosh","Firefox","134.0","OS X","10.15","https://app.prolific.com/","en-US,en;q=0.5","6774ed8fea9a49a640664efb","67949641171f97c04e14fb34","6795196ba7bd536b8d14fe82","","null","<img     src='G_8.jpg' height='90'> <img     src='G_3.jpg' height='90'> <img     src='G_4.jpg' height='90'> <img     src='G_7.jpg' height='90'> <img id='swapped' src='G_2.jpg' height='90'> <img id='swapped'     src='G_1.jpg' height='90'> <img src='G_5.jpg' height='90'> <img src='G_6.jpg' height='90'>","null","Animation1",""
"","","","","","html-keyboard-response","101","172661","0.0-90.0","42","1","2025-01-25 17:06:12","af8d355d56820e421d246a7037deb6e6","172.56.41.186","Mozilla/5.0 (Macintosh; Intel Mac OS X 10.15; rv:134.0) Gecko/20100101 Firefox/134.0","Macintosh","Firefox","134.0","OS X","10.15","https://app.prolific.com/","en-US,en;q=0.5","6774ed8fea9a49a640664efb","67949641171f97c04e14fb34","6795196ba7bd536b8d14fe82","","null","<img     src='G_8.jpg' height='90'> <img     src='G_3.jpg' height='90'> <img     src='G_4.jpg' height='90'> <img     src='G_7.jpg' height='90'> <img  src='G_2.jpg' height='90'> <img      src='G_1.jpg' height='90'> <img src='G_5.jpg' height='90'> <img src='G_6.jpg' height='90'>","null","Animation1",""
"","","","","","html-keyboard-response","102","173171","0.0-91.0","42","1","2025-01-25 17:06:12","af8d355d56820e421d246a7037deb6e6","172.56.41.186","Mozilla/5.0 (Macintosh; Intel Mac OS X 10.15; rv:134.0) Gecko/20100101 Firefox/134.0","Macintosh","Firefox","134.0","OS X","10.15","https://app.prolific.com/","en-US,en;q=0.5","6774ed8fea9a49a640664efb","67949641171f97c04e14fb34","6795196ba7bd536b8d14fe82","","null","<img     src='G_8.jpg' height='90'> <img     src='G_3.jpg' height='90'> <img     src='G_4.jpg' height='90'> <img id='selected'     src='G_7.jpg' height='90'> <img  src='G_2.jpg' height='90'> <img      src='G_1.jpg' height='90'> <img src='G_5.jpg' height='90'> <img src='G_6.jpg' height='90'>","null","Animation1",""
"","","","","","html-keyboard-response","103","173675","0.0-92.0","42","1","2025-01-25 17:06:12","af8d355d56820e421d246a7037deb6e6","172.56.41.186","Mozilla/5.0 (Macintosh; Intel Mac OS X 10.15; rv:134.0) Gecko/20100101 Firefox/134.0","Macintosh","Firefox","134.0","OS X","10.15","https://app.prolific.com/","en-US,en;q=0.5","6774ed8fea9a49a640664efb","67949641171f97c04e14fb34","6795196ba7bd536b8d14fe82","","null","<img     src='G_8.jpg' height='90'> <img     src='G_3.jpg' height='90'> <img     src='G_4.jpg' height='90'> <img id='selected'     src='G_7.jpg' height='90'> <img id='selected'  src='G_2.jpg' height='90'> <img      src='G_1.jpg' height='90'> <img src='G_5.jpg' height='90'> <img src='G_6.jpg' height='90'>","null","Animation1",""
"","","","","","html-keyboard-response","104","174183","0.0-93.0","42","1","2025-01-25 17:06:12","af8d355d56820e421d246a7037deb6e6","172.56.41.186","Mozilla/5.0 (Macintosh; Intel Mac OS X 10.15; rv:134.0) Gecko/20100101 Firefox/134.0","Macintosh","Firefox","134.0","OS X","10.15","https://app.prolific.com/","en-US,en;q=0.5","6774ed8fea9a49a640664efb","67949641171f97c04e14fb34","6795196ba7bd536b8d14fe82","","null","<img     src='G_8.jpg' height='90'> <img     src='G_3.jpg' height='90'> <img     src='G_4.jpg' height='90'> <img id='selected'     src='G_7.jpg' height='90'> <img id='selected'  src='G_2.jpg' height='90'> <img      src='G_1.jpg' height='90'> <img src='G_5.jpg' height='90'> <img src='G_6.jpg' height='90'>","null","Animation1",""
"","","","","","html-keyboard-response","105","174495","0.0-94.0","42","1","2025-01-25 17:06:12","af8d355d56820e421d246a7037deb6e6","172.56.41.186","Mozilla/5.0 (Macintosh; Intel Mac OS X 10.15; rv:134.0) Gecko/20100101 Firefox/134.0","Macintosh","Firefox","134.0","OS X","10.15","https://app.prolific.com/","en-US,en;q=0.5","6774ed8fea9a49a640664efb","67949641171f97c04e14fb34","6795196ba7bd536b8d14fe82","","null","<img     src='G_8.jpg' height='90'> <img     src='G_3.jpg' height='90'> <img     src='G_4.jpg' height='90'> <img      src='G_7.jpg' height='90'> <img   src='G_2.jpg' height='90'> <img      src='G_1.jpg' height='90'> <img src='G_5.jpg' height='90'> <img src='G_6.jpg' height='90'>","null","Animation1",""
"","","","","","html-keyboard-response","106","175005","0.0-95.0","42","1","2025-01-25 17:06:12","af8d355d56820e421d246a7037deb6e6","172.56.41.186","Mozilla/5.0 (Macintosh; Intel Mac OS X 10.15; rv:134.0) Gecko/20100101 Firefox/134.0","Macintosh","Firefox","134.0","OS X","10.15","https://app.prolific.com/","en-US,en;q=0.5","6774ed8fea9a49a640664efb","67949641171f97c04e14fb34","6795196ba7bd536b8d14fe82","","null","<img     src='G_8.jpg' height='90'> <img     src='G_3.jpg' height='90'> <img     src='G_4.jpg' height='90'> <img      src='G_7.jpg' height='90'> <img   src='G_2.jpg' height='90'> <img id='selected'      src='G_1.jpg' height='90'> <img src='G_5.jpg' height='90'> <img src='G_6.jpg' height='90'>","null","Animation1",""
"","","","","","html-keyboard-response","107","175512","0.0-96.0","42","1","2025-01-25 17:06:12","af8d355d56820e421d246a7037deb6e6","172.56.41.186","Mozilla/5.0 (Macintosh; Intel Mac OS X 10.15; rv:134.0) Gecko/20100101 Firefox/134.0","Macintosh","Firefox","134.0","OS X","10.15","https://app.prolific.com/","en-US,en;q=0.5","6774ed8fea9a49a640664efb","67949641171f97c04e14fb34","6795196ba7bd536b8d14fe82","","null","<img     src='G_8.jpg' height='90'> <img     src='G_3.jpg' height='90'> <img     src='G_4.jpg' height='90'> <img      src='G_7.jpg' height='90'> <img   src='G_2.jpg' height='90'> <img id='selected'      src='G_1.jpg' height='90'> <img id='selected' src='G_5.jpg' height='90'> <img src='G_6.jpg' height='90'>","null","Animation1",""
"","","","","","html-keyboard-response","108","176020","0.0-97.0","42","1","2025-01-25 17:06:12","af8d355d56820e421d246a7037deb6e6","172.56.41.186","Mozilla/5.0 (Macintosh; Intel Mac OS X 10.15; rv:134.0) Gecko/20100101 Firefox/134.0","Macintosh","Firefox","134.0","OS X","10.15","https://app.prolific.com/","en-US,en;q=0.5","6774ed8fea9a49a640664efb","67949641171f97c04e14fb34","6795196ba7bd536b8d14fe82","","null","<img     src='G_8.jpg' height='90'> <img     src='G_3.jpg' height='90'> <img     src='G_4.jpg' height='90'> <img      src='G_7.jpg' height='90'> <img   src='G_2.jpg' height='90'> <img id='selected'      src='G_1.jpg' height='90'> <img id='selected' src='G_5.jpg' height='90'> <img src='G_6.jpg' height='90'>","null","Animation1",""
"","","","","","html-keyboard-response","109","176329","0.0-98.0","42","1","2025-01-25 17:06:12","af8d355d56820e421d246a7037deb6e6","172.56.41.186","Mozilla/5.0 (Macintosh; Intel Mac OS X 10.15; rv:134.0) Gecko/20100101 Firefox/134.0","Macintosh","Firefox","134.0","OS X","10.15","https://app.prolific.com/","en-US,en;q=0.5","6774ed8fea9a49a640664efb","67949641171f97c04e14fb34","6795196ba7bd536b8d14fe82","","null","<img     src='G_8.jpg' height='90'> <img     src='G_3.jpg' height='90'> <img     src='G_4.jpg' height='90'> <img      src='G_7.jpg' height='90'> <img   src='G_2.jpg' height='90'> <img       src='G_1.jpg' height='90'> <img  src='G_5.jpg' height='90'> <img src='G_6.jpg' height='90'>","null","Animation1",""
"","","","","","html-keyboard-response","110","176839","0.0-99.0","42","1","2025-01-25 17:06:12","af8d355d56820e421d246a7037deb6e6","172.56.41.186","Mozilla/5.0 (Macintosh; Intel Mac OS X 10.15; rv:134.0) Gecko/20100101 Firefox/134.0","Macintosh","Firefox","134.0","OS X","10.15","https://app.prolific.com/","en-US,en;q=0.5","6774ed8fea9a49a640664efb","67949641171f97c04e14fb34","6795196ba7bd536b8d14fe82","","null","<img     src='G_8.jpg' height='90'> <img     src='G_3.jpg' height='90'> <img     src='G_4.jpg' height='90'> <img      src='G_7.jpg' height='90'> <img   src='G_2.jpg' height='90'> <img       src='G_1.jpg' height='90'> <img id='selected'  src='G_5.jpg' height='90'> <img src='G_6.jpg' height='90'>","null","Animation1",""
"","","","","","html-keyboard-response","111","177345","0.0-100.0","42","1","2025-01-25 17:06:12","af8d355d56820e421d246a7037deb6e6","172.56.41.186","Mozilla/5.0 (Macintosh; Intel Mac OS X 10.15; rv:134.0) Gecko/20100101 Firefox/134.0","Macintosh","Firefox","134.0","OS X","10.15","https://app.prolific.com/","en-US,en;q=0.5","6774ed8fea9a49a640664efb","67949641171f97c04e14fb34","6795196ba7bd536b8d14fe82","","null","<img     src='G_8.jpg' height='90'> <img     src='G_3.jpg' height='90'> <img     src='G_4.jpg' height='90'> <img      src='G_7.jpg' height='90'> <img   src='G_2.jpg' height='90'> <img       src='G_1.jpg' height='90'> <img id='selected'  src='G_5.jpg' height='90'> <img id='selected' src='G_6.jpg' height='90'>","null","Animation1",""
"","","","","","html-keyboard-response","112","177850","0.0-101.0","42","1","2025-01-25 17:06:12","af8d355d56820e421d246a7037deb6e6","172.56.41.186","Mozilla/5.0 (Macintosh; Intel Mac OS X 10.15; rv:134.0) Gecko/20100101 Firefox/134.0","Macintosh","Firefox","134.0","OS X","10.15","https://app.prolific.com/","en-US,en;q=0.5","6774ed8fea9a49a640664efb","67949641171f97c04e14fb34","6795196ba7bd536b8d14fe82","","null","<img     src='G_8.jpg' height='90'> <img     src='G_3.jpg' height='90'> <img     src='G_4.jpg' height='90'> <img      src='G_7.jpg' height='90'> <img   src='G_2.jpg' height='90'> <img       src='G_1.jpg' height='90'> <img id='swapped' src='G_6.jpg' height='90'> <img id='swapped'  src='G_5.jpg' height='90'>","null","Animation1",""
"","","","","","html-keyboard-response","113","178155","0.0-102.0","42","1","2025-01-25 17:06:12","af8d355d56820e421d246a7037deb6e6","172.56.41.186","Mozilla/5.0 (Macintosh; Intel Mac OS X 10.15; rv:134.0) Gecko/20100101 Firefox/134.0","Macintosh","Firefox","134.0","OS X","10.15","https://app.prolific.com/","en-US,en;q=0.5","6774ed8fea9a49a640664efb","67949641171f97c04e14fb34","6795196ba7bd536b8d14fe82","","null","<img     src='G_8.jpg' height='90'> <img     src='G_3.jpg' height='90'> <img     src='G_4.jpg' height='90'> <img      src='G_7.jpg' height='90'> <img   src='G_2.jpg' height='90'> <img       src='G_1.jpg' height='90'> <img  src='G_6.jpg' height='90'> <img   src='G_5.jpg' height='90'>","null","Animation1",""
"","","","","","html-keyboard-response","114","178662","0.0-103.0","42","1","2025-01-25 17:06:12","af8d355d56820e421d246a7037deb6e6","172.56.41.186","Mozilla/5.0 (Macintosh; Intel Mac OS X 10.15; rv:134.0) Gecko/20100101 Firefox/134.0","Macintosh","Firefox","134.0","OS X","10.15","https://app.prolific.com/","en-US,en;q=0.5","6774ed8fea9a49a640664efb","67949641171f97c04e14fb34","6795196ba7bd536b8d14fe82","","null","<img     src='G_8.jpg' height='90'> <img     src='G_3.jpg' height='90'> <img     src='G_4.jpg' height='90'> <img      src='G_7.jpg' height='90'> <img   src='G_2.jpg' height='90'> <img id='selected'       src='G_1.jpg' height='90'> <img  src='G_6.jpg' height='90'> <img   src='G_5.jpg' height='90'>","null","Animation1",""
"","","","","","html-keyboard-response","115","179167","0.0-104.0","42","1","2025-01-25 17:06:12","af8d355d56820e421d246a7037deb6e6","172.56.41.186","Mozilla/5.0 (Macintosh; Intel Mac OS X 10.15; rv:134.0) Gecko/20100101 Firefox/134.0","Macintosh","Firefox","134.0","OS X","10.15","https://app.prolific.com/","en-US,en;q=0.5","6774ed8fea9a49a640664efb","67949641171f97c04e14fb34","6795196ba7bd536b8d14fe82","","null","<img     src='G_8.jpg' height='90'> <img     src='G_3.jpg' height='90'> <img     src='G_4.jpg' height='90'> <img      src='G_7.jpg' height='90'> <img   src='G_2.jpg' height='90'> <img id='selected'       src='G_1.jpg' height='90'> <img id='selected'  src='G_6.jpg' height='90'> <img   src='G_5.jpg' height='90'>","null","Animation1",""
"","","","","","html-keyboard-response","116","180372","0.0-105.0","42","1","2025-01-25 17:06:12","af8d355d56820e421d246a7037deb6e6","172.56.41.186","Mozilla/5.0 (Macintosh; Intel Mac OS X 10.15; rv:134.0) Gecko/20100101 Firefox/134.0","Macintosh","Firefox","134.0","OS X","10.15","https://app.prolific.com/","en-US,en;q=0.5","6774ed8fea9a49a640664efb","67949641171f97c04e14fb34","6795196ba7bd536b8d14fe82","","null","<img     src='G_8.jpg' height='90'> <img     src='G_3.jpg' height='90'> <img     src='G_4.jpg' height='90'> <img      src='G_7.jpg' height='90'> <img   src='G_2.jpg' height='90'> <img id='selected'       src='G_1.jpg' height='90'> <img id='selected'  src='G_6.jpg' height='90'> <img   src='G_5.jpg' height='90'>","null","Animation1",""
"","","","","","html-keyboard-response","117","180862","0.0-106.0","42","1","2025-01-25 17:06:12","af8d355d56820e421d246a7037deb6e6","172.56.41.186","Mozilla/5.0 (Macintosh; Intel Mac OS X 10.15; rv:134.0) Gecko/20100101 Firefox/134.0","Macintosh","Firefox","134.0","OS X","10.15","https://app.prolific.com/","en-US,en;q=0.5","6774ed8fea9a49a640664efb","67949641171f97c04e14fb34","6795196ba7bd536b8d14fe82","","null","<img     src='G_8.jpg' height='90'> <img     src='G_3.jpg' height='90'> <img     src='G_4.jpg' height='90'> <img      src='G_7.jpg' height='90'> <img   src='G_2.jpg' height='90'> <img        src='G_1.jpg' height='90'> <img   src='G_6.jpg' height='90'> <img   src='G_5.jpg' height='90'>","null","Animation1",""
"","","","","","html-keyboard-response","118","182754","0.0-107.0","42","1","2025-01-25 17:06:12","af8d355d56820e421d246a7037deb6e6","172.56.41.186","Mozilla/5.0 (Macintosh; Intel Mac OS X 10.15; rv:134.0) Gecko/20100101 Firefox/134.0","Macintosh","Firefox","134.0","OS X","10.15","https://app.prolific.com/","en-US,en;q=0.5","6774ed8fea9a49a640664efb","67949641171f97c04e14fb34","6795196ba7bd536b8d14fe82","","1887","[""Did you notice any patterns? <br><br>Press Enter to watch that example again and follow the steps of Omgne Sort.""]","enter","",""
"","","","","","html-button-response","119","183161","0.0-108.0","42","1","2025-01-25 17:06:12","af8d355d56820e421d246a7037deb6e6","172.56.41.186","Mozilla/5.0 (Macintosh; Intel Mac OS X 10.15; rv:134.0) Gecko/20100101 Firefox/134.0","Macintosh","Firefox","134.0","OS X","10.15","https://app.prolific.com/","en-US,en;q=0.5","6774ed8fea9a49a640664efb","67949641171f97c04e14fb34","6795196ba7bd536b8d14fe82","","null","<img id='selected' src='G_7.jpg' height='90'> <img src='G_1.jpg' height='90'> <img src='G_4.jpg' height='90'> <img src='G_8.jpg' height='90'> <img src='G_3.jpg' height='90'> <img src='G_2.jpg' height='90'> <img src='G_5.jpg' height='90'> <img src='G_6.jpg' height='90'>","null","Learning example 1",""
"","","","","","html-button-response","120","183470","0.0-109.0","42","1","2025-01-25 17:06:12","af8d355d56820e421d246a7037deb6e6","172.56.41.186","Mozilla/5.0 (Macintosh; Intel Mac OS X 10.15; rv:134.0) Gecko/20100101 Firefox/134.0","Macintosh","Firefox","134.0","OS X","10.15","https://app.prolific.com/","en-US,en;q=0.5","6774ed8fea9a49a640664efb","67949641171f97c04e14fb34","6795196ba7bd536b8d14fe82","","null","<img id='selected' src='G_7.jpg' height='90'> <img id='selected' src='G_1.jpg' height='90'> <img src='G_4.jpg' height='90'> <img src='G_8.jpg' height='90'> <img src='G_3.jpg' height='90'> <img src='G_2.jpg' height='90'> <img src='G_5.jpg' height='90'> <img src='G_6.jpg' height='90'>","null","Learning example 1",""
"","","","","","html-button-response","121","183775","0.0-110.0","42","1","2025-01-25 17:06:12","af8d355d56820e421d246a7037deb6e6","172.56.41.186","Mozilla/5.0 (Macintosh; Intel Mac OS X 10.15; rv:134.0) Gecko/20100101 Firefox/134.0","Macintosh","Firefox","134.0","OS X","10.15","https://app.prolific.com/","en-US,en;q=0.5","6774ed8fea9a49a640664efb","67949641171f97c04e14fb34","6795196ba7bd536b8d14fe82","","null","<img id='selected' src='G_7.jpg' height='90'> <img id='selected' src='G_1.jpg' height='90'> <img src='G_4.jpg' height='90'> <img src='G_8.jpg' height='90'> <img src='G_3.jpg' height='90'> <img src='G_2.jpg' height='90'> <img src='G_5.jpg' height='90'> <img src='G_6.jpg' height='90'>","null","Learning example 1",""
"","","","","","html-button-response","122","187470","0.0-111.0-0.0-0.0","42","1","2025-01-25 17:06:12","af8d355d56820e421d246a7037deb6e6","172.56.41.186","Mozilla/5.0 (Macintosh; Intel Mac OS X 10.15; rv:134.0) Gecko/20100101 Firefox/134.0","Macintosh","Firefox","134.0","OS X","10.15","https://app.prolific.com/","en-US,en;q=0.5","6774ed8fea9a49a640664efb","67949641171f97c04e14fb34","6795196ba7bd536b8d14fe82","","3688","<img id='selected' src='G_7.jpg' height='90'> <img id='selected' src='G_1.jpg' height='90'> <img src='G_4.jpg' height='90'> <img src='G_8.jpg' height='90'> <img src='G_3.jpg' height='90'> <img src='G_2.jpg' height='90'> <img src='G_5.jpg' height='90'> <img src='G_6.jpg' height='90'>","0","Learning example 1",""
"","","","","","html-button-response","123","187929","0.0-111.1-0.1-0.1","42","1","2025-01-25 17:06:12","af8d355d56820e421d246a7037deb6e6","172.56.41.186","Mozilla/5.0 (Macintosh; Intel Mac OS X 10.15; rv:134.0) Gecko/20100101 Firefox/134.0","Macintosh","Firefox","134.0","OS X","10.15","https://app.prolific.com/","en-US,en;q=0.5","6774ed8fea9a49a640664efb","67949641171f97c04e14fb34","6795196ba7bd536b8d14fe82","","447","<img id='selected' src='G_7.jpg' height='90'> <img id='selected' src='G_1.jpg' height='90'> <img src='G_4.jpg' height='90'> <img src='G_8.jpg' height='90'> <img src='G_3.jpg' height='90'> <img src='G_2.jpg' height='90'> <img src='G_5.jpg' height='90'> <img src='G_6.jpg' height='90'>","1","Learning example 1",""
"","","","","","html-button-response","124","188137","0.0-112.0","42","1","2025-01-25 17:06:12","af8d355d56820e421d246a7037deb6e6","172.56.41.186","Mozilla/5.0 (Macintosh; Intel Mac OS X 10.15; rv:134.0) Gecko/20100101 Firefox/134.0","Macintosh","Firefox","134.0","OS X","10.15","https://app.prolific.com/","en-US,en;q=0.5","6774ed8fea9a49a640664efb","67949641171f97c04e14fb34","6795196ba7bd536b8d14fe82","","null","<img  src='G_7.jpg' height='90'> <img  src='G_1.jpg' height='90'> <img src='G_4.jpg' height='90'> <img src='G_8.jpg' height='90'> <img src='G_3.jpg' height='90'> <img src='G_2.jpg' height='90'> <img src='G_5.jpg' height='90'> <img src='G_6.jpg' height='90'>","null","Learning example 1",""
"","","","","","html-button-response","125","188545","0.0-113.0","42","1","2025-01-25 17:06:12","af8d355d56820e421d246a7037deb6e6","172.56.41.186","Mozilla/5.0 (Macintosh; Intel Mac OS X 10.15; rv:134.0) Gecko/20100101 Firefox/134.0","Macintosh","Firefox","134.0","OS X","10.15","https://app.prolific.com/","en-US,en;q=0.5","6774ed8fea9a49a640664efb","67949641171f97c04e14fb34","6795196ba7bd536b8d14fe82","","null","<img  src='G_7.jpg' height='90'> <img id='selected'  src='G_1.jpg' height='90'> <img src='G_4.jpg' height='90'> <img src='G_8.jpg' height='90'> <img src='G_3.jpg' height='90'> <img src='G_2.jpg' height='90'> <img src='G_5.jpg' height='90'> <img src='G_6.jpg' height='90'>","null","Learning example 1",""
"","","","","","html-button-response","126","188856","0.0-114.0","42","1","2025-01-25 17:06:12","af8d355d56820e421d246a7037deb6e6","172.56.41.186","Mozilla/5.0 (Macintosh; Intel Mac OS X 10.15; rv:134.0) Gecko/20100101 Firefox/134.0","Macintosh","Firefox","134.0","OS X","10.15","https://app.prolific.com/","en-US,en;q=0.5","6774ed8fea9a49a640664efb","67949641171f97c04e14fb34","6795196ba7bd536b8d14fe82","","null","<img  src='G_7.jpg' height='90'> <img id='selected'  src='G_1.jpg' height='90'> <img id='selected' src='G_4.jpg' height='90'> <img src='G_8.jpg' height='90'> <img src='G_3.jpg' height='90'> <img src='G_2.jpg' height='90'> <img src='G_5.jpg' height='90'> <img src='G_6.jpg' height='90'>","null","Learning example 1",""
"","","","","","html-button-response","127","189164","0.0-115.0","42","1","2025-01-25 17:06:12","af8d355d56820e421d246a7037deb6e6","172.56.41.186","Mozilla/5.0 (Macintosh; Intel Mac OS X 10.15; rv:134.0) Gecko/20100101 Firefox/134.0","Macintosh","Firefox","134.0","OS X","10.15","https://app.prolific.com/","en-US,en;q=0.5","6774ed8fea9a49a640664efb","67949641171f97c04e14fb34","6795196ba7bd536b8d14fe82","","null","<img  src='G_7.jpg' height='90'> <img id='swapped' src='G_4.jpg' height='90'> <img id='swapped'  src='G_1.jpg' height='90'> <img src='G_8.jpg' height='90'> <img src='G_3.jpg' height='90'> <img src='G_2.jpg' height='90'> <img src='G_5.jpg' height='90'> <img src='G_6.jpg' height='90'>","null","Learning example 1",""
"","","","","","html-button-response","128","190058","0.0-116.0-0.0-0.0","42","1","2025-01-25 17:06:12","af8d355d56820e421d246a7037deb6e6","172.56.41.186","Mozilla/5.0 (Macintosh; Intel Mac OS X 10.15; rv:134.0) Gecko/20100101 Firefox/134.0","Macintosh","Firefox","134.0","OS X","10.15","https://app.prolific.com/","en-US,en;q=0.5","6774ed8fea9a49a640664efb","67949641171f97c04e14fb34","6795196ba7bd536b8d14fe82","","888","<img  src='G_7.jpg' height='90'> <img id='swapped' src='G_4.jpg' height='90'> <img id='swapped'  src='G_1.jpg' height='90'> <img src='G_8.jpg' height='90'> <img src='G_3.jpg' height='90'> <img src='G_2.jpg' height='90'> <img src='G_5.jpg' height='90'> <img src='G_6.jpg' height='90'>","1","Learning example 1",""
"","","","","","html-button-response","129","190451","0.0-116.1-0.1-0.1","42","1","2025-01-25 17:06:12","af8d355d56820e421d246a7037deb6e6","172.56.41.186","Mozilla/5.0 (Macintosh; Intel Mac OS X 10.15; rv:134.0) Gecko/20100101 Firefox/134.0","Macintosh","Firefox","134.0","OS X","10.15","https://app.prolific.com/","en-US,en;q=0.5","6774ed8fea9a49a640664efb","67949641171f97c04e14fb34","6795196ba7bd536b8d14fe82","","388","<img  src='G_7.jpg' height='90'> <img id='swapped' src='G_4.jpg' height='90'> <img id='swapped'  src='G_1.jpg' height='90'> <img src='G_8.jpg' height='90'> <img src='G_3.jpg' height='90'> <img src='G_2.jpg' height='90'> <img src='G_5.jpg' height='90'> <img src='G_6.jpg' height='90'>","2","Learning example 1",""
"","","","","","html-button-response","130","190658","0.0-117.0","42","1","2025-01-25 17:06:12","af8d355d56820e421d246a7037deb6e6","172.56.41.186","Mozilla/5.0 (Macintosh; Intel Mac OS X 10.15; rv:134.0) Gecko/20100101 Firefox/134.0","Macintosh","Firefox","134.0","OS X","10.15","https://app.prolific.com/","en-US,en;q=0.5","6774ed8fea9a49a640664efb","67949641171f97c04e14fb34","6795196ba7bd536b8d14fe82","","null","<img  src='G_7.jpg' height='90'> <img  src='G_4.jpg' height='90'> <img   src='G_1.jpg' height='90'> <img src='G_8.jpg' height='90'> <img src='G_3.jpg' height='90'> <img src='G_2.jpg' height='90'> <img src='G_5.jpg' height='90'> <img src='G_6.jpg' height='90'>","null","Learning example 1",""
"","","","","","html-button-response","131","191100","0.0-118.0","42","1","2025-01-25 17:06:12","af8d355d56820e421d246a7037deb6e6","172.56.41.186","Mozilla/5.0 (Macintosh; Intel Mac OS X 10.15; rv:134.0) Gecko/20100101 Firefox/134.0","Macintosh","Firefox","134.0","OS X","10.15","https://app.prolific.com/","en-US,en;q=0.5","6774ed8fea9a49a640664efb","67949641171f97c04e14fb34","6795196ba7bd536b8d14fe82","","null","<img id='selected'  src='G_7.jpg' height='90'> <img  src='G_4.jpg' height='90'> <img   src='G_1.jpg' height='90'> <img src='G_8.jpg' height='90'> <img src='G_3.jpg' height='90'> <img src='G_2.jpg' height='90'> <img src='G_5.jpg' height='90'> <img src='G_6.jpg' height='90'>","null","Learning example 1",""
"","","","","","html-button-response","132","191415","0.0-119.0","42","1","2025-01-25 17:06:12","af8d355d56820e421d246a7037deb6e6","172.56.41.186","Mozilla/5.0 (Macintosh; Intel Mac OS X 10.15; rv:134.0) Gecko/20100101 Firefox/134.0","Macintosh","Firefox","134.0","OS X","10.15","https://app.prolific.com/","en-US,en;q=0.5","6774ed8fea9a49a640664efb","67949641171f97c04e14fb34","6795196ba7bd536b8d14fe82","","null","<img id='selected'  src='G_7.jpg' height='90'> <img id='selected'  src='G_4.jpg' height='90'> <img   src='G_1.jpg' height='90'> <img src='G_8.jpg' height='90'> <img src='G_3.jpg' height='90'> <img src='G_2.jpg' height='90'> <img src='G_5.jpg' height='90'> <img src='G_6.jpg' height='90'>","null","Learning example 1",""
"","","","","","html-button-response","133","191725","0.0-120.0","42","1","2025-01-25 17:06:12","af8d355d56820e421d246a7037deb6e6","172.56.41.186","Mozilla/5.0 (Macintosh; Intel Mac OS X 10.15; rv:134.0) Gecko/20100101 Firefox/134.0","Macintosh","Firefox","134.0","OS X","10.15","https://app.prolific.com/","en-US,en;q=0.5","6774ed8fea9a49a640664efb","67949641171f97c04e14fb34","6795196ba7bd536b8d14fe82","","null","<img id='swapped'  src='G_4.jpg' height='90'> <img id='swapped'  src='G_7.jpg' height='90'> <img   src='G_1.jpg' height='90'> <img src='G_8.jpg' height='90'> <img src='G_3.jpg' height='90'> <img src='G_2.jpg' height='90'> <img src='G_5.jpg' height='90'> <img src='G_6.jpg' height='90'>","null","Learning example 1",""
"","","","","","html-button-response","134","192365","0.0-121.0-0.0-0.0","42","1","2025-01-25 17:06:12","af8d355d56820e421d246a7037deb6e6","172.56.41.186","Mozilla/5.0 (Macintosh; Intel Mac OS X 10.15; rv:134.0) Gecko/20100101 Firefox/134.0","Macintosh","Firefox","134.0","OS X","10.15","https://app.prolific.com/","en-US,en;q=0.5","6774ed8fea9a49a640664efb","67949641171f97c04e14fb34","6795196ba7bd536b8d14fe82","","631","<img id='swapped'  src='G_4.jpg' height='90'> <img id='swapped'  src='G_7.jpg' height='90'> <img   src='G_1.jpg' height='90'> <img src='G_8.jpg' height='90'> <img src='G_3.jpg' height='90'> <img src='G_2.jpg' height='90'> <img src='G_5.jpg' height='90'> <img src='G_6.jpg' height='90'>","0","Learning example 1",""
"","","","","","html-button-response","135","192686","0.0-121.1-0.1-0.1","42","1","2025-01-25 17:06:12","af8d355d56820e421d246a7037deb6e6","172.56.41.186","Mozilla/5.0 (Macintosh; Intel Mac OS X 10.15; rv:134.0) Gecko/20100101 Firefox/134.0","Macintosh","Firefox","134.0","OS X","10.15","https://app.prolific.com/","en-US,en;q=0.5","6774ed8fea9a49a640664efb","67949641171f97c04e14fb34","6795196ba7bd536b8d14fe82","","314","<img id='swapped'  src='G_4.jpg' height='90'> <img id='swapped'  src='G_7.jpg' height='90'> <img   src='G_1.jpg' height='90'> <img src='G_8.jpg' height='90'> <img src='G_3.jpg' height='90'> <img src='G_2.jpg' height='90'> <img src='G_5.jpg' height='90'> <img src='G_6.jpg' height='90'>","1","Learning example 1",""
"","","","","","html-button-response","136","192895","0.0-122.0","42","1","2025-01-25 17:06:12","af8d355d56820e421d246a7037deb6e6","172.56.41.186","Mozilla/5.0 (Macintosh; Intel Mac OS X 10.15; rv:134.0) Gecko/20100101 Firefox/134.0","Macintosh","Firefox","134.0","OS X","10.15","https://app.prolific.com/","en-US,en;q=0.5","6774ed8fea9a49a640664efb","67949641171f97c04e14fb34","6795196ba7bd536b8d14fe82","","null","<img   src='G_4.jpg' height='90'> <img   src='G_7.jpg' height='90'> <img   src='G_1.jpg' height='90'> <img src='G_8.jpg' height='90'> <img src='G_3.jpg' height='90'> <img src='G_2.jpg' height='90'> <img src='G_5.jpg' height='90'> <img src='G_6.jpg' height='90'>","null","Learning example 1",""
"","","","","","html-button-response","137","193305","0.0-123.0","42","1","2025-01-25 17:06:12","af8d355d56820e421d246a7037deb6e6","172.56.41.186","Mozilla/5.0 (Macintosh; Intel Mac OS X 10.15; rv:134.0) Gecko/20100101 Firefox/134.0","Macintosh","Firefox","134.0","OS X","10.15","https://app.prolific.com/","en-US,en;q=0.5","6774ed8fea9a49a640664efb","67949641171f97c04e14fb34","6795196ba7bd536b8d14fe82","","null","<img   src='G_4.jpg' height='90'> <img   src='G_7.jpg' height='90'> <img id='selected'   src='G_1.jpg' height='90'> <img src='G_8.jpg' height='90'> <img src='G_3.jpg' height='90'> <img src='G_2.jpg' height='90'> <img src='G_5.jpg' height='90'> <img src='G_6.jpg' height='90'>","null","Learning example 1",""
"","","","","","html-button-response","138","193612","0.0-124.0","42","1","2025-01-25 17:06:12","af8d355d56820e421d246a7037deb6e6","172.56.41.186","Mozilla/5.0 (Macintosh; Intel Mac OS X 10.15; rv:134.0) Gecko/20100101 Firefox/134.0","Macintosh","Firefox","134.0","OS X","10.15","https://app.prolific.com/","en-US,en;q=0.5","6774ed8fea9a49a640664efb","67949641171f97c04e14fb34","6795196ba7bd536b8d14fe82","","null","<img   src='G_4.jpg' height='90'> <img   src='G_7.jpg' height='90'> <img id='selected'   src='G_1.jpg' height='90'> <img id='selected' src='G_8.jpg' height='90'> <img src='G_3.jpg' height='90'> <img src='G_2.jpg' height='90'> <img src='G_5.jpg' height='90'> <img src='G_6.jpg' height='90'>","null","Learning example 1",""
"","","","","","html-button-response","139","193918","0.0-125.0","42","1","2025-01-25 17:06:12","af8d355d56820e421d246a7037deb6e6","172.56.41.186","Mozilla/5.0 (Macintosh; Intel Mac OS X 10.15; rv:134.0) Gecko/20100101 Firefox/134.0","Macintosh","Firefox","134.0","OS X","10.15","https://app.prolific.com/","en-US,en;q=0.5","6774ed8fea9a49a640664efb","67949641171f97c04e14fb34","6795196ba7bd536b8d14fe82","","null","<img   src='G_4.jpg' height='90'> <img   src='G_7.jpg' height='90'> <img id='swapped' src='G_8.jpg' height='90'> <img id='swapped'   src='G_1.jpg' height='90'> <img src='G_3.jpg' height='90'> <img src='G_2.jpg' height='90'> <img src='G_5.jpg' height='90'> <img src='G_6.jpg' height='90'>","null","Learning example 1",""
"","","","","","html-button-response","140","194426","0.0-126.0-0.0-0.0","42","1","2025-01-25 17:06:12","af8d355d56820e421d246a7037deb6e6","172.56.41.186","Mozilla/5.0 (Macintosh; Intel Mac OS X 10.15; rv:134.0) Gecko/20100101 Firefox/134.0","Macintosh","Firefox","134.0","OS X","10.15","https://app.prolific.com/","en-US,en;q=0.5","6774ed8fea9a49a640664efb","67949641171f97c04e14fb34","6795196ba7bd536b8d14fe82","","499","<img   src='G_4.jpg' height='90'> <img   src='G_7.jpg' height='90'> <img id='swapped' src='G_8.jpg' height='90'> <img id='swapped'   src='G_1.jpg' height='90'> <img src='G_3.jpg' height='90'> <img src='G_2.jpg' height='90'> <img src='G_5.jpg' height='90'> <img src='G_6.jpg' height='90'>","2","Learning example 1",""
"","","","","","html-button-response","141","194717","0.0-126.1-0.1-0.1","42","1","2025-01-25 17:06:12","af8d355d56820e421d246a7037deb6e6","172.56.41.186","Mozilla/5.0 (Macintosh; Intel Mac OS X 10.15; rv:134.0) Gecko/20100101 Firefox/134.0","Macintosh","Firefox","134.0","OS X","10.15","https://app.prolific.com/","en-US,en;q=0.5","6774ed8fea9a49a640664efb","67949641171f97c04e14fb34","6795196ba7bd536b8d14fe82","","285","<img   src='G_4.jpg' height='90'> <img   src='G_7.jpg' height='90'> <img id='swapped' src='G_8.jpg' height='90'> <img id='swapped'   src='G_1.jpg' height='90'> <img src='G_3.jpg' height='90'> <img src='G_2.jpg' height='90'> <img src='G_5.jpg' height='90'> <img src='G_6.jpg' height='90'>","3","Learning example 1",""
"","","","","","html-button-response","142","194923","0.0-127.0","42","1","2025-01-25 17:06:12","af8d355d56820e421d246a7037deb6e6","172.56.41.186","Mozilla/5.0 (Macintosh; Intel Mac OS X 10.15; rv:134.0) Gecko/20100101 Firefox/134.0","Macintosh","Firefox","134.0","OS X","10.15","https://app.prolific.com/","en-US,en;q=0.5","6774ed8fea9a49a640664efb","67949641171f97c04e14fb34","6795196ba7bd536b8d14fe82","","null","<img   src='G_4.jpg' height='90'> <img   src='G_7.jpg' height='90'> <img  src='G_8.jpg' height='90'> <img    src='G_1.jpg' height='90'> <img src='G_3.jpg' height='90'> <img src='G_2.jpg' height='90'> <img src='G_5.jpg' height='90'> <img src='G_6.jpg' height='90'>","null","Learning example 1",""
"","","","","","html-button-response","143","195330","0.0-128.0","42","1","2025-01-25 17:06:12","af8d355d56820e421d246a7037deb6e6","172.56.41.186","Mozilla/5.0 (Macintosh; Intel Mac OS X 10.15; rv:134.0) Gecko/20100101 Firefox/134.0","Macintosh","Firefox","134.0","OS X","10.15","https://app.prolific.com/","en-US,en;q=0.5","6774ed8fea9a49a640664efb","67949641171f97c04e14fb34","6795196ba7bd536b8d14fe82","","null","<img   src='G_4.jpg' height='90'> <img id='selected'   src='G_7.jpg' height='90'> <img  src='G_8.jpg' height='90'> <img    src='G_1.jpg' height='90'> <img src='G_3.jpg' height='90'> <img src='G_2.jpg' height='90'> <img src='G_5.jpg' height='90'> <img src='G_6.jpg' height='90'>","null","Learning example 1",""
"","","","","","html-button-response","144","195641","0.0-129.0","42","1","2025-01-25 17:06:12","af8d355d56820e421d246a7037deb6e6","172.56.41.186","Mozilla/5.0 (Macintosh; Intel Mac OS X 10.15; rv:134.0) Gecko/20100101 Firefox/134.0","Macintosh","Firefox","134.0","OS X","10.15","https://app.prolific.com/","en-US,en;q=0.5","6774ed8fea9a49a640664efb","67949641171f97c04e14fb34","6795196ba7bd536b8d14fe82","","null","<img   src='G_4.jpg' height='90'> <img id='selected'   src='G_7.jpg' height='90'> <img id='selected'  src='G_8.jpg' height='90'> <img    src='G_1.jpg' height='90'> <img src='G_3.jpg' height='90'> <img src='G_2.jpg' height='90'> <img src='G_5.jpg' height='90'> <img src='G_6.jpg' height='90'>","null","Learning example 1",""
"","","","","","html-button-response","145","195951","0.0-130.0","42","1","2025-01-25 17:06:12","af8d355d56820e421d246a7037deb6e6","172.56.41.186","Mozilla/5.0 (Macintosh; Intel Mac OS X 10.15; rv:134.0) Gecko/20100101 Firefox/134.0","Macintosh","Firefox","134.0","OS X","10.15","https://app.prolific.com/","en-US,en;q=0.5","6774ed8fea9a49a640664efb","67949641171f97c04e14fb34","6795196ba7bd536b8d14fe82","","null","<img   src='G_4.jpg' height='90'> <img id='swapped'  src='G_8.jpg' height='90'> <img id='swapped'   src='G_7.jpg' height='90'> <img    src='G_1.jpg' height='90'> <img src='G_3.jpg' height='90'> <img src='G_2.jpg' height='90'> <img src='G_5.jpg' height='90'> <img src='G_6.jpg' height='90'>","null","Learning example 1",""
"","","","","","html-button-response","146","196207","0.0-131.0-0.0-0.0","42","1","2025-01-25 17:06:12","af8d355d56820e421d246a7037deb6e6","172.56.41.186","Mozilla/5.0 (Macintosh; Intel Mac OS X 10.15; rv:134.0) Gecko/20100101 Firefox/134.0","Macintosh","Firefox","134.0","OS X","10.15","https://app.prolific.com/","en-US,en;q=0.5","6774ed8fea9a49a640664efb","67949641171f97c04e14fb34","6795196ba7bd536b8d14fe82","","249","<img   src='G_4.jpg' height='90'> <img id='swapped'  src='G_8.jpg' height='90'> <img id='swapped'   src='G_7.jpg' height='90'> <img    src='G_1.jpg' height='90'> <img src='G_3.jpg' height='90'> <img src='G_2.jpg' height='90'> <img src='G_5.jpg' height='90'> <img src='G_6.jpg' height='90'>","1","Learning example 1",""
