"success","timeout","failed_images","failed_audio","failed_video","trial_type","trial_index","time_elapsed","internal_node_id","run_id","condition","recorded_at","source_code_version","ip","user_agent","device","browser","browser_version","platform","platform_version","referer","accept_language","PROLIFIC_PID","STUDY_ID","SESSION_ID","view_history","rt","stimulus","response","phase","question_order"
"true","false","[]","[]","[]","preload","0","161","0.0-0.0","43","1","2025-01-25 17:08:04","af8d355d56820e421d246a7037deb6e6","45.31.138.6","Mozilla/5.0 (Windows NT 10.0; Win64; x64; rv:134.0) Gecko/20100101 Firefox/134.0","","Firefox","134.0","Windows","10.0","https://app.prolific.com/","en-US,en;q=0.5","576704bffdff7a0001c12890","67949641171f97c04e14fb34","67951a42efdeead586cba6db","","","","","",""
"","","","","","instructions","1","4675","0.0-1.0","43","1","2025-01-25 17:08:04","af8d355d56820e421d246a7037deb6e6","45.31.138.6","Mozilla/5.0 (Windows NT 10.0; Win64; x64; rv:134.0) Gecko/20100101 Firefox/134.0","","Firefox","134.0","Windows","10.0","https://app.prolific.com/","en-US,en;q=0.5","576704bffdff7a0001c12890","67949641171f97c04e14fb34","67951a42efdeead586cba6db","[{""page_index"":0,""viewing_time"":4513}]","4513","","","",""
"","","","","","html-keyboard-response","2","5184","0.0-2.0","43","1","2025-01-25 17:08:04","af8d355d56820e421d246a7037deb6e6","45.31.138.6","Mozilla/5.0 (Windows NT 10.0; Win64; x64; rv:134.0) Gecko/20100101 Firefox/134.0","","Firefox","134.0","Windows","10.0","https://app.prolific.com/","en-US,en;q=0.5","576704bffdff7a0001c12890","67949641171f97c04e14fb34","67951a42efdeead586cba6db","","null","<p> + <p/>","null","",""
"","","","","","instructions","3","17327","0.0-3.0","43","1","2025-01-25 17:08:04","af8d355d56820e421d246a7037deb6e6","45.31.138.6","Mozilla/5.0 (Windows NT 10.0; Win64; x64; rv:134.0) Gecko/20100101 Firefox/134.0","","Firefox","134.0","Windows","10.0","https://app.prolific.com/","en-US,en;q=0.5","576704bffdff7a0001c12890","67949641171f97c04e14fb34","67951a42efdeead586cba6db","[{""page_index"":0,""viewing_time"":1631},{""page_index"":1,""viewing_time"":2903},{""page_index"":2,""viewing_time"":3209},{""page_index"":3,""viewing_time"":1527},{""page_index"":4,""viewing_time"":2872}]","12142","","","",""
"","","","","","html-button-response","4","19263","0.0-4.0-0.0-0.0","43","1","2025-01-25 17:08:04","af8d355d56820e421d246a7037deb6e6","45.31.138.6","Mozilla/5.0 (Windows NT 10.0; Win64; x64; rv:134.0) Gecko/20100101 Firefox/134.0","","Firefox","134.0","Windows","10.0","https://app.prolific.com/","en-US,en;q=0.5","576704bffdff7a0001c12890","67949641171f97c04e14fb34","67951a42efdeead586cba6db","","1934","","0","Intro Trial",""
"","","","","","html-button-response","5","19876","0.0-4.1-0.1-0.1","43","1","2025-01-25 17:08:04","af8d355d56820e421d246a7037deb6e6","45.31.138.6","Mozilla/5.0 (Windows NT 10.0; Win64; x64; rv:134.0) Gecko/20100101 Firefox/134.0","","Firefox","134.0","Windows","10.0","https://app.prolific.com/","en-US,en;q=0.5","576704bffdff7a0001c12890","67949641171f97c04e14fb34","67951a42efdeead586cba6db","","611","","1","Intro Trial",""
"","","","","","html-button-response","6","22929","0.0-4.2-0.2-0.2","43","1","2025-01-25 17:08:04","af8d355d56820e421d246a7037deb6e6","45.31.138.6","Mozilla/5.0 (Windows NT 10.0; Win64; x64; rv:134.0) Gecko/20100101 Firefox/134.0","","Firefox","134.0","Windows","10.0","https://app.prolific.com/","en-US,en;q=0.5","576704bffdff7a0001c12890","67949641171f97c04e14fb34","67951a42efdeead586cba6db","","3051","","1","Intro Trial",""
"","","","","","html-button-response","7","23291","0.0-4.3-0.3-0.3","43","1","2025-01-25 17:08:04","af8d355d56820e421d246a7037deb6e6","45.31.138.6","Mozilla/5.0 (Windows NT 10.0; Win64; x64; rv:134.0) Gecko/20100101 Firefox/134.0","","Firefox","134.0","Windows","10.0","https://app.prolific.com/","en-US,en;q=0.5","576704bffdff7a0001c12890","67949641171f97c04e14fb34","67951a42efdeead586cba6db","","360","","2","Intro Trial",""
"","","","","","html-button-response","8","23985","0.0-4.4-0.4-0.4","43","1","2025-01-25 17:08:04","af8d355d56820e421d246a7037deb6e6","45.31.138.6","Mozilla/5.0 (Windows NT 10.0; Win64; x64; rv:134.0) Gecko/20100101 Firefox/134.0","","Firefox","134.0","Windows","10.0","https://app.prolific.com/","en-US,en;q=0.5","576704bffdff7a0001c12890","67949641171f97c04e14fb34","67951a42efdeead586cba6db","","693","","2","Intro Trial",""
"","","","","","html-button-response","9","24285","0.0-4.5-0.5-0.5","43","1","2025-01-25 17:08:04","af8d355d56820e421d246a7037deb6e6","45.31.138.6","Mozilla/5.0 (Windows NT 10.0; Win64; x64; rv:134.0) Gecko/20100101 Firefox/134.0","","Firefox","134.0","Windows","10.0","https://app.prolific.com/","en-US,en;q=0.5","576704bffdff7a0001c12890","67949641171f97c04e14fb34","67951a42efdeead586cba6db","","299","","3","Intro Trial",""
"","","","","","html-button-response","10","25001","0.0-4.6-0.6-0.6","43","1","2025-01-25 17:08:04","af8d355d56820e421d246a7037deb6e6","45.31.138.6","Mozilla/5.0 (Windows NT 10.0; Win64; x64; rv:134.0) Gecko/20100101 Firefox/134.0","","Firefox","134.0","Windows","10.0","https://app.prolific.com/","en-US,en;q=0.5","576704bffdff7a0001c12890","67949641171f97c04e14fb34","67951a42efdeead586cba6db","","716","","4","Intro Trial",""
"","","","","","html-button-response","11","25399","0.0-4.7-0.7-0.7","43","1","2025-01-25 17:08:04","af8d355d56820e421d246a7037deb6e6","45.31.138.6","Mozilla/5.0 (Windows NT 10.0; Win64; x64; rv:134.0) Gecko/20100101 Firefox/134.0","","Firefox","134.0","Windows","10.0","https://app.prolific.com/","en-US,en;q=0.5","576704bffdff7a0001c12890","67949641171f97c04e14fb34","67951a42efdeead586cba6db","","396","","3","Intro Trial",""
"","","","","","html-button-response","12","26372","0.0-4.8-0.8-0.8","43","1","2025-01-25 17:08:04","af8d355d56820e421d246a7037deb6e6","45.31.138.6","Mozilla/5.0 (Windows NT 10.0; Win64; x64; rv:134.0) Gecko/20100101 Firefox/134.0","","Firefox","134.0","Windows","10.0","https://app.prolific.com/","en-US,en;q=0.5","576704bffdff7a0001c12890","67949641171f97c04e14fb34","67951a42efdeead586cba6db","","972","","3","Intro Trial",""
"","","","","","html-button-response","13","26685","0.0-4.9-0.9-0.9","43","1","2025-01-25 17:08:04","af8d355d56820e421d246a7037deb6e6","45.31.138.6","Mozilla/5.0 (Windows NT 10.0; Win64; x64; rv:134.0) Gecko/20100101 Firefox/134.0","","Firefox","134.0","Windows","10.0","https://app.prolific.com/","en-US,en;q=0.5","576704bffdff7a0001c12890","67949641171f97c04e14fb34","67951a42efdeead586cba6db","","312","","2","Intro Trial",""
"","","","","","html-button-response","14","27240","0.0-4.10-0.10-0.10","43","1","2025-01-25 17:08:04","af8d355d56820e421d246a7037deb6e6","45.31.138.6","Mozilla/5.0 (Windows NT 10.0; Win64; x64; rv:134.0) Gecko/20100101 Firefox/134.0","","Firefox","134.0","Windows","10.0","https://app.prolific.com/","en-US,en;q=0.5","576704bffdff7a0001c12890","67949641171f97c04e14fb34","67951a42efdeead586cba6db","","554","","2","Intro Trial",""
"","","","","","html-button-response","15","27588","0.0-4.11-0.11-0.11","43","1","2025-01-25 17:08:04","af8d355d56820e421d246a7037deb6e6","45.31.138.6","Mozilla/5.0 (Windows NT 10.0; Win64; x64; rv:134.0) Gecko/20100101 Firefox/134.0","","Firefox","134.0","Windows","10.0","https://app.prolific.com/","en-US,en;q=0.5","576704bffdff7a0001c12890","67949641171f97c04e14fb34","67951a42efdeead586cba6db","","347","","1","Intro Trial",""
"","","","","","html-button-response","16","28108","0.0-4.12-0.12-0.12","43","1","2025-01-25 17:08:04","af8d355d56820e421d246a7037deb6e6","45.31.138.6","Mozilla/5.0 (Windows NT 10.0; Win64; x64; rv:134.0) Gecko/20100101 Firefox/134.0","","Firefox","134.0","Windows","10.0","https://app.prolific.com/","en-US,en;q=0.5","576704bffdff7a0001c12890","67949641171f97c04e14fb34","67951a42efdeead586cba6db","","520","","1","Intro Trial",""
"","","","","","html-button-response","17","28452","0.0-4.13-0.13-0.13","43","1","2025-01-25 17:08:04","af8d355d56820e421d246a7037deb6e6","45.31.138.6","Mozilla/5.0 (Windows NT 10.0; Win64; x64; rv:134.0) Gecko/20100101 Firefox/134.0","","Firefox","134.0","Windows","10.0","https://app.prolific.com/","en-US,en;q=0.5","576704bffdff7a0001c12890","67949641171f97c04e14fb34","67951a42efdeead586cba6db","","342","","0","Intro Trial",""
"","","","","","html-button-response","18","29436","0.0-4.14-0.14-0.14","43","1","2025-01-25 17:08:04","af8d355d56820e421d246a7037deb6e6","45.31.138.6","Mozilla/5.0 (Windows NT 10.0; Win64; x64; rv:134.0) Gecko/20100101 Firefox/134.0","","Firefox","134.0","Windows","10.0","https://app.prolific.com/","en-US,en;q=0.5","576704bffdff7a0001c12890","67949641171f97c04e14fb34","67951a42efdeead586cba6db","","984","","1","Intro Trial",""
"","","","","","html-button-response","19","29720","0.0-4.15-0.15-0.15","43","1","2025-01-25 17:08:04","af8d355d56820e421d246a7037deb6e6","45.31.138.6","Mozilla/5.0 (Windows NT 10.0; Win64; x64; rv:134.0) Gecko/20100101 Firefox/134.0","","Firefox","134.0","Windows","10.0","https://app.prolific.com/","en-US,en;q=0.5","576704bffdff7a0001c12890","67949641171f97c04e14fb34","67951a42efdeead586cba6db","","282","","2","Intro Trial",""
"","","","","","html-button-response","20","30401","0.0-4.16-0.16-0.16","43","1","2025-01-25 17:08:04","af8d355d56820e421d246a7037deb6e6","45.31.138.6","Mozilla/5.0 (Windows NT 10.0; Win64; x64; rv:134.0) Gecko/20100101 Firefox/134.0","","Firefox","134.0","Windows","10.0","https://app.prolific.com/","en-US,en;q=0.5","576704bffdff7a0001c12890","67949641171f97c04e14fb34","67951a42efdeead586cba6db","","680","","2","Intro Trial",""
"","","","","","html-button-response","21","30710","0.0-4.17-0.17-0.17","43","1","2025-01-25 17:08:04","af8d355d56820e421d246a7037deb6e6","45.31.138.6","Mozilla/5.0 (Windows NT 10.0; Win64; x64; rv:134.0) Gecko/20100101 Firefox/134.0","","Firefox","134.0","Windows","10.0","https://app.prolific.com/","en-US,en;q=0.5","576704bffdff7a0001c12890","67949641171f97c04e14fb34","67951a42efdeead586cba6db","","309","","3","Intro Trial",""
"","","","","","html-button-response","22","31445","0.0-4.18-0.18-0.18","43","1","2025-01-25 17:08:04","af8d355d56820e421d246a7037deb6e6","45.31.138.6","Mozilla/5.0 (Windows NT 10.0; Win64; x64; rv:134.0) Gecko/20100101 Firefox/134.0","","Firefox","134.0","Windows","10.0","https://app.prolific.com/","en-US,en;q=0.5","576704bffdff7a0001c12890","67949641171f97c04e14fb34","67951a42efdeead586cba6db","","733","","3","Intro Trial",""
"","","","","","html-button-response","23","31763","0.0-4.19-0.19-0.19","43","1","2025-01-25 17:08:04","af8d355d56820e421d246a7037deb6e6","45.31.138.6","Mozilla/5.0 (Windows NT 10.0; Win64; x64; rv:134.0) Gecko/20100101 Firefox/134.0","","Firefox","134.0","Windows","10.0","https://app.prolific.com/","en-US,en;q=0.5","576704bffdff7a0001c12890","67949641171f97c04e14fb34","67951a42efdeead586cba6db","","317","","4","Intro Trial",""
"","","","","","html-button-response","24","33523","0.0-4.20-0.20-0.20","43","1","2025-01-25 17:08:04","af8d355d56820e421d246a7037deb6e6","45.31.138.6","Mozilla/5.0 (Windows NT 10.0; Win64; x64; rv:134.0) Gecko/20100101 Firefox/134.0","","Firefox","134.0","Windows","10.0","https://app.prolific.com/","en-US,en;q=0.5","576704bffdff7a0001c12890","67949641171f97c04e14fb34","67951a42efdeead586cba6db","","1759","","5","Intro Trial",""
"","","","","","html-keyboard-response","25","41143","0.0-5.0","43","1","2025-01-25 17:08:04","af8d355d56820e421d246a7037deb6e6","45.31.138.6","Mozilla/5.0 (Windows NT 10.0; Win64; x64; rv:134.0) Gecko/20100101 Firefox/134.0","","Firefox","134.0","Windows","10.0","https://app.prolific.com/","en-US,en;q=0.5","576704bffdff7a0001c12890","67949641171f97c04e14fb34","67951a42efdeead586cba6db","","7619","[""You sorted correctly by using the balance 10 times. <br><br> <img src='G_5.jpg' height='90'><img src='G_2.jpg' height='90'><img src='G_3.jpg' height='90'><img src='G_1.jpg' height='90'><img src='G_4.jpg' height='90'><br><br> Your final order is 1,2,3,4,5<br><br><br>Omgne Sort in this game will allow you to sort correctly by using the balance 8 times. Press Enter to learn it!""]","enter","",""
"","","","","","html-keyboard-response","26","43055","0.0-6.0","43","1","2025-01-25 17:08:04","af8d355d56820e421d246a7037deb6e6","45.31.138.6","Mozilla/5.0 (Windows NT 10.0; Win64; x64; rv:134.0) Gecko/20100101 Firefox/134.0","","Firefox","134.0","Windows","10.0","https://app.prolific.com/","en-US,en;q=0.5","576704bffdff7a0001c12890","67949641171f97c04e14fb34","67951a42efdeead586cba6db","","1911","<p>Welcome to the learning phase! <br><br> You will learn by six examples. The following learning trials will not be used to calculate your performance. <br><br> Press Enter to continue.<p/>","enter","",""
"","","","","","html-keyboard-response","27","45951","0.0-7.0","43","1","2025-01-25 17:08:04","af8d355d56820e421d246a7037deb6e6","45.31.138.6","Mozilla/5.0 (Windows NT 10.0; Win64; x64; rv:134.0) Gecko/20100101 Firefox/134.0","","Firefox","134.0","Windows","10.0","https://app.prolific.com/","en-US,en;q=0.5","576704bffdff7a0001c12890","67949641171f97c04e14fb34","67951a42efdeead586cba6db","","2895","[""Example 1<br><br>You will watch Omnge Sort in action. Try to identify any patterns in the comparisons made by this method. <br><br>Press Enter to continue.""]","enter","",""
"","","","","","html-keyboard-response","28","46456","0.0-8.0","43","1","2025-01-25 17:08:04","af8d355d56820e421d246a7037deb6e6","45.31.138.6","Mozilla/5.0 (Windows NT 10.0; Win64; x64; rv:134.0) Gecko/20100101 Firefox/134.0","","Firefox","134.0","Windows","10.0","https://app.prolific.com/","en-US,en;q=0.5","576704bffdff7a0001c12890","67949641171f97c04e14fb34","67951a42efdeead586cba6db","","null","<img id='selected' src='G_3.jpg' height='90'> <img src='G_1.jpg' height='90'> <img src='G_7.jpg' height='90'> <img src='G_9.jpg' height='90'> <img src='G_5.jpg' height='90'>","null","Animation0",""
"","","","","","html-keyboard-response","29","46967","0.0-9.0","43","1","2025-01-25 17:08:04","af8d355d56820e421d246a7037deb6e6","45.31.138.6","Mozilla/5.0 (Windows NT 10.0; Win64; x64; rv:134.0) Gecko/20100101 Firefox/134.0","","Firefox","134.0","Windows","10.0","https://app.prolific.com/","en-US,en;q=0.5","576704bffdff7a0001c12890","67949641171f97c04e14fb34","67951a42efdeead586cba6db","","null","<img id='selected' src='G_3.jpg' height='90'> <img id='selected' src='G_1.jpg' height='90'> <img src='G_7.jpg' height='90'> <img src='G_9.jpg' height='90'> <img src='G_5.jpg' height='90'>","null","Animation0",""
"","","","","","html-keyboard-response","30","47475","0.0-10.0","43","1","2025-01-25 17:08:04","af8d355d56820e421d246a7037deb6e6","45.31.138.6","Mozilla/5.0 (Windows NT 10.0; Win64; x64; rv:134.0) Gecko/20100101 Firefox/134.0","","Firefox","134.0","Windows","10.0","https://app.prolific.com/","en-US,en;q=0.5","576704bffdff7a0001c12890","67949641171f97c04e14fb34","67951a42efdeead586cba6db","","null","<img id='swapped' src='G_1.jpg' height='90'> <img id='swapped' src='G_3.jpg' height='90'> <img src='G_7.jpg' height='90'> <img src='G_9.jpg' height='90'> <img src='G_5.jpg' height='90'>","null","Animation0",""
"","","","","","html-keyboard-response","31","47783","0.0-11.0","43","1","2025-01-25 17:08:04","af8d355d56820e421d246a7037deb6e6","45.31.138.6","Mozilla/5.0 (Windows NT 10.0; Win64; x64; rv:134.0) Gecko/20100101 Firefox/134.0","","Firefox","134.0","Windows","10.0","https://app.prolific.com/","en-US,en;q=0.5","576704bffdff7a0001c12890","67949641171f97c04e14fb34","67951a42efdeead586cba6db","","null","<img  src='G_1.jpg' height='90'> <img  src='G_3.jpg' height='90'> <img src='G_7.jpg' height='90'> <img src='G_9.jpg' height='90'> <img src='G_5.jpg' height='90'>","null","Animation0",""
"","","","","","html-keyboard-response","32","48340","0.0-12.0","43","1","2025-01-25 17:08:04","af8d355d56820e421d246a7037deb6e6","45.31.138.6","Mozilla/5.0 (Windows NT 10.0; Win64; x64; rv:134.0) Gecko/20100101 Firefox/134.0","","Firefox","134.0","Windows","10.0","https://app.prolific.com/","en-US,en;q=0.5","576704bffdff7a0001c12890","67949641171f97c04e14fb34","67951a42efdeead586cba6db","","null","<img  src='G_1.jpg' height='90'> <img id='selected'  src='G_3.jpg' height='90'> <img src='G_7.jpg' height='90'> <img src='G_9.jpg' height='90'> <img src='G_5.jpg' height='90'>","null","Animation0",""
"","","","","","html-keyboard-response","33","48851","0.0-13.0","43","1","2025-01-25 17:08:04","af8d355d56820e421d246a7037deb6e6","45.31.138.6","Mozilla/5.0 (Windows NT 10.0; Win64; x64; rv:134.0) Gecko/20100101 Firefox/134.0","","Firefox","134.0","Windows","10.0","https://app.prolific.com/","en-US,en;q=0.5","576704bffdff7a0001c12890","67949641171f97c04e14fb34","67951a42efdeead586cba6db","","null","<img  src='G_1.jpg' height='90'> <img id='selected'  src='G_3.jpg' height='90'> <img id='selected' src='G_7.jpg' height='90'> <img src='G_9.jpg' height='90'> <img src='G_5.jpg' height='90'>","null","Animation0",""
"","","","","","html-keyboard-response","34","49362","0.0-14.0","43","1","2025-01-25 17:08:04","af8d355d56820e421d246a7037deb6e6","45.31.138.6","Mozilla/5.0 (Windows NT 10.0; Win64; x64; rv:134.0) Gecko/20100101 Firefox/134.0","","Firefox","134.0","Windows","10.0","https://app.prolific.com/","en-US,en;q=0.5","576704bffdff7a0001c12890","67949641171f97c04e14fb34","67951a42efdeead586cba6db","","null","<img  src='G_1.jpg' height='90'> <img id='selected'  src='G_3.jpg' height='90'> <img id='selected' src='G_7.jpg' height='90'> <img src='G_9.jpg' height='90'> <img src='G_5.jpg' height='90'>","null","Animation0",""
"","","","","","html-keyboard-response","35","49670","0.0-15.0","43","1","2025-01-25 17:08:04","af8d355d56820e421d246a7037deb6e6","45.31.138.6","Mozilla/5.0 (Windows NT 10.0; Win64; x64; rv:134.0) Gecko/20100101 Firefox/134.0","","Firefox","134.0","Windows","10.0","https://app.prolific.com/","en-US,en;q=0.5","576704bffdff7a0001c12890","67949641171f97c04e14fb34","67951a42efdeead586cba6db","","null","<img  src='G_1.jpg' height='90'> <img   src='G_3.jpg' height='90'> <img  src='G_7.jpg' height='90'> <img src='G_9.jpg' height='90'> <img src='G_5.jpg' height='90'>","null","Animation0",""
"","","","","","html-keyboard-response","36","50182","0.0-16.0","43","1","2025-01-25 17:08:04","af8d355d56820e421d246a7037deb6e6","45.31.138.6","Mozilla/5.0 (Windows NT 10.0; Win64; x64; rv:134.0) Gecko/20100101 Firefox/134.0","","Firefox","134.0","Windows","10.0","https://app.prolific.com/","en-US,en;q=0.5","576704bffdff7a0001c12890","67949641171f97c04e14fb34","67951a42efdeead586cba6db","","null","<img  src='G_1.jpg' height='90'> <img   src='G_3.jpg' height='90'> <img id='selected'  src='G_7.jpg' height='90'> <img src='G_9.jpg' height='90'> <img src='G_5.jpg' height='90'>","null","Animation0",""
"","","","","","html-keyboard-response","37","50691","0.0-17.0","43","1","2025-01-25 17:08:04","af8d355d56820e421d246a7037deb6e6","45.31.138.6","Mozilla/5.0 (Windows NT 10.0; Win64; x64; rv:134.0) Gecko/20100101 Firefox/134.0","","Firefox","134.0","Windows","10.0","https://app.prolific.com/","en-US,en;q=0.5","576704bffdff7a0001c12890","67949641171f97c04e14fb34","67951a42efdeead586cba6db","","null","<img  src='G_1.jpg' height='90'> <img   src='G_3.jpg' height='90'> <img id='selected'  src='G_7.jpg' height='90'> <img id='selected' src='G_9.jpg' height='90'> <img src='G_5.jpg' height='90'>","null","Animation0",""
"","","","","","html-keyboard-response","38","51199","0.0-18.0","43","1","2025-01-25 17:08:04","af8d355d56820e421d246a7037deb6e6","45.31.138.6","Mozilla/5.0 (Windows NT 10.0; Win64; x64; rv:134.0) Gecko/20100101 Firefox/134.0","","Firefox","134.0","Windows","10.0","https://app.prolific.com/","en-US,en;q=0.5","576704bffdff7a0001c12890","67949641171f97c04e14fb34","67951a42efdeead586cba6db","","null","<img  src='G_1.jpg' height='90'> <img   src='G_3.jpg' height='90'> <img id='selected'  src='G_7.jpg' height='90'> <img id='selected' src='G_9.jpg' height='90'> <img src='G_5.jpg' height='90'>","null","Animation0",""
"","","","","","html-keyboard-response","39","51508","0.0-19.0","43","1","2025-01-25 17:08:04","af8d355d56820e421d246a7037deb6e6","45.31.138.6","Mozilla/5.0 (Windows NT 10.0; Win64; x64; rv:134.0) Gecko/20100101 Firefox/134.0","","Firefox","134.0","Windows","10.0","https://app.prolific.com/","en-US,en;q=0.5","576704bffdff7a0001c12890","67949641171f97c04e14fb34","67951a42efdeead586cba6db","","null","<img  src='G_1.jpg' height='90'> <img   src='G_3.jpg' height='90'> <img   src='G_7.jpg' height='90'> <img  src='G_9.jpg' height='90'> <img src='G_5.jpg' height='90'>","null","Animation0",""
"","","","","","html-keyboard-response","40","52017","0.0-20.0","43","1","2025-01-25 17:08:04","af8d355d56820e421d246a7037deb6e6","45.31.138.6","Mozilla/5.0 (Windows NT 10.0; Win64; x64; rv:134.0) Gecko/20100101 Firefox/134.0","","Firefox","134.0","Windows","10.0","https://app.prolific.com/","en-US,en;q=0.5","576704bffdff7a0001c12890","67949641171f97c04e14fb34","67951a42efdeead586cba6db","","null","<img  src='G_1.jpg' height='90'> <img   src='G_3.jpg' height='90'> <img   src='G_7.jpg' height='90'> <img id='selected'  src='G_9.jpg' height='90'> <img src='G_5.jpg' height='90'>","null","Animation0",""
"","","","","","html-keyboard-response","41","52527","0.0-21.0","43","1","2025-01-25 17:08:04","af8d355d56820e421d246a7037deb6e6","45.31.138.6","Mozilla/5.0 (Windows NT 10.0; Win64; x64; rv:134.0) Gecko/20100101 Firefox/134.0","","Firefox","134.0","Windows","10.0","https://app.prolific.com/","en-US,en;q=0.5","576704bffdff7a0001c12890","67949641171f97c04e14fb34","67951a42efdeead586cba6db","","null","<img  src='G_1.jpg' height='90'> <img   src='G_3.jpg' height='90'> <img   src='G_7.jpg' height='90'> <img id='selected'  src='G_9.jpg' height='90'> <img id='selected' src='G_5.jpg' height='90'>","null","Animation0",""
"","","","","","html-keyboard-response","42","53067","0.0-22.0","43","1","2025-01-25 17:08:04","af8d355d56820e421d246a7037deb6e6","45.31.138.6","Mozilla/5.0 (Windows NT 10.0; Win64; x64; rv:134.0) Gecko/20100101 Firefox/134.0","","Firefox","134.0","Windows","10.0","https://app.prolific.com/","en-US,en;q=0.5","576704bffdff7a0001c12890","67949641171f97c04e14fb34","67951a42efdeead586cba6db","","null","<img  src='G_1.jpg' height='90'> <img   src='G_3.jpg' height='90'> <img   src='G_7.jpg' height='90'> <img id='selected'  src='G_9.jpg' height='90'> <img id='selected' src='G_5.jpg' height='90'>","null","Animation0",""
"","","","","","html-keyboard-response","43","53376","0.0-23.0","43","1","2025-01-25 17:08:04","af8d355d56820e421d246a7037deb6e6","45.31.138.6","Mozilla/5.0 (Windows NT 10.0; Win64; x64; rv:134.0) Gecko/20100101 Firefox/134.0","","Firefox","134.0","Windows","10.0","https://app.prolific.com/","en-US,en;q=0.5","576704bffdff7a0001c12890","67949641171f97c04e14fb34","67951a42efdeead586cba6db","","null","<img  src='G_1.jpg' height='90'> <img   src='G_3.jpg' height='90'> <img   src='G_7.jpg' height='90'> <img   src='G_9.jpg' height='90'> <img  src='G_5.jpg' height='90'>","null","Animation0",""
"","","","","","html-keyboard-response","44","55551","0.0-24.0","43","1","2025-01-25 17:08:04","af8d355d56820e421d246a7037deb6e6","45.31.138.6","Mozilla/5.0 (Windows NT 10.0; Win64; x64; rv:134.0) Gecko/20100101 Firefox/134.0","","Firefox","134.0","Windows","10.0","https://app.prolific.com/","en-US,en;q=0.5","576704bffdff7a0001c12890","67949641171f97c04e14fb34","67951a42efdeead586cba6db","","2174","[""Did you notice any patterns? <br><br>Press Enter to watch that example again and follow the steps of Omgne Sort.""]","enter","",""
"","","","","","html-button-response","45","55952","0.0-25.0","43","1","2025-01-25 17:08:04","af8d355d56820e421d246a7037deb6e6","45.31.138.6","Mozilla/5.0 (Windows NT 10.0; Win64; x64; rv:134.0) Gecko/20100101 Firefox/134.0","","Firefox","134.0","Windows","10.0","https://app.prolific.com/","en-US,en;q=0.5","576704bffdff7a0001c12890","67949641171f97c04e14fb34","67951a42efdeead586cba6db","","null","<img id='selected' src='G_3.jpg' height='90'> <img src='G_1.jpg' height='90'> <img src='G_7.jpg' height='90'> <img src='G_9.jpg' height='90'> <img src='G_5.jpg' height='90'>","null","Learning example 0",""
"","","","","","html-button-response","46","56261","0.0-26.0","43","1","2025-01-25 17:08:04","af8d355d56820e421d246a7037deb6e6","45.31.138.6","Mozilla/5.0 (Windows NT 10.0; Win64; x64; rv:134.0) Gecko/20100101 Firefox/134.0","","Firefox","134.0","Windows","10.0","https://app.prolific.com/","en-US,en;q=0.5","576704bffdff7a0001c12890","67949641171f97c04e14fb34","67951a42efdeead586cba6db","","null","<img id='selected' src='G_3.jpg' height='90'> <img id='selected' src='G_1.jpg' height='90'> <img src='G_7.jpg' height='90'> <img src='G_9.jpg' height='90'> <img src='G_5.jpg' height='90'>","null","Learning example 0",""
"","","","","","html-button-response","47","56571","0.0-27.0","43","1","2025-01-25 17:08:04","af8d355d56820e421d246a7037deb6e6","45.31.138.6","Mozilla/5.0 (Windows NT 10.0; Win64; x64; rv:134.0) Gecko/20100101 Firefox/134.0","","Firefox","134.0","Windows","10.0","https://app.prolific.com/","en-US,en;q=0.5","576704bffdff7a0001c12890","67949641171f97c04e14fb34","67951a42efdeead586cba6db","","null","<img id='swapped' src='G_1.jpg' height='90'> <img id='swapped' src='G_3.jpg' height='90'> <img src='G_7.jpg' height='90'> <img src='G_9.jpg' height='90'> <img src='G_5.jpg' height='90'>","null","Learning example 0",""
"","","","","","html-button-response","48","64600","0.0-28.0-0.0-0.0","43","1","2025-01-25 17:08:04","af8d355d56820e421d246a7037deb6e6","45.31.138.6","Mozilla/5.0 (Windows NT 10.0; Win64; x64; rv:134.0) Gecko/20100101 Firefox/134.0","","Firefox","134.0","Windows","10.0","https://app.prolific.com/","en-US,en;q=0.5","576704bffdff7a0001c12890","67949641171f97c04e14fb34","67951a42efdeead586cba6db","","8028","<img id='swapped' src='G_1.jpg' height='90'> <img id='swapped' src='G_3.jpg' height='90'> <img src='G_7.jpg' height='90'> <img src='G_9.jpg' height='90'> <img src='G_5.jpg' height='90'>","0","Learning example 0",""
"","","","","","html-button-response","49","65017","0.0-28.1-0.1-0.1","43","1","2025-01-25 17:08:04","af8d355d56820e421d246a7037deb6e6","45.31.138.6","Mozilla/5.0 (Windows NT 10.0; Win64; x64; rv:134.0) Gecko/20100101 Firefox/134.0","","Firefox","134.0","Windows","10.0","https://app.prolific.com/","en-US,en;q=0.5","576704bffdff7a0001c12890","67949641171f97c04e14fb34","67951a42efdeead586cba6db","","416","<img id='swapped' src='G_1.jpg' height='90'> <img id='swapped' src='G_3.jpg' height='90'> <img src='G_7.jpg' height='90'> <img src='G_9.jpg' height='90'> <img src='G_5.jpg' height='90'>","1","Learning example 0",""
"","","","","","html-button-response","50","65224","0.0-29.0","43","1","2025-01-25 17:08:04","af8d355d56820e421d246a7037deb6e6","45.31.138.6","Mozilla/5.0 (Windows NT 10.0; Win64; x64; rv:134.0) Gecko/20100101 Firefox/134.0","","Firefox","134.0","Windows","10.0","https://app.prolific.com/","en-US,en;q=0.5","576704bffdff7a0001c12890","67949641171f97c04e14fb34","67951a42efdeead586cba6db","","null","<img  src='G_1.jpg' height='90'> <img  src='G_3.jpg' height='90'> <img src='G_7.jpg' height='90'> <img src='G_9.jpg' height='90'> <img src='G_5.jpg' height='90'>","null","Learning example 0",""
"","","","","","html-button-response","51","65639","0.0-30.0","43","1","2025-01-25 17:08:04","af8d355d56820e421d246a7037deb6e6","45.31.138.6","Mozilla/5.0 (Windows NT 10.0; Win64; x64; rv:134.0) Gecko/20100101 Firefox/134.0","","Firefox","134.0","Windows","10.0","https://app.prolific.com/","en-US,en;q=0.5","576704bffdff7a0001c12890","67949641171f97c04e14fb34","67951a42efdeead586cba6db","","null","<img  src='G_1.jpg' height='90'> <img id='selected'  src='G_3.jpg' height='90'> <img src='G_7.jpg' height='90'> <img src='G_9.jpg' height='90'> <img src='G_5.jpg' height='90'>","null","Learning example 0",""
"","","","","","html-button-response","52","65948","0.0-31.0","43","1","2025-01-25 17:08:04","af8d355d56820e421d246a7037deb6e6","45.31.138.6","Mozilla/5.0 (Windows NT 10.0; Win64; x64; rv:134.0) Gecko/20100101 Firefox/134.0","","Firefox","134.0","Windows","10.0","https://app.prolific.com/","en-US,en;q=0.5","576704bffdff7a0001c12890","67949641171f97c04e14fb34","67951a42efdeead586cba6db","","null","<img  src='G_1.jpg' height='90'> <img id='selected'  src='G_3.jpg' height='90'> <img id='selected' src='G_7.jpg' height='90'> <img src='G_9.jpg' height='90'> <img src='G_5.jpg' height='90'>","null","Learning example 0",""
"","","","","","html-button-response","53","66258","0.0-32.0","43","1","2025-01-25 17:08:04","af8d355d56820e421d246a7037deb6e6","45.31.138.6","Mozilla/5.0 (Windows NT 10.0; Win64; x64; rv:134.0) Gecko/20100101 Firefox/134.0","","Firefox","134.0","Windows","10.0","https://app.prolific.com/","en-US,en;q=0.5","576704bffdff7a0001c12890","67949641171f97c04e14fb34","67951a42efdeead586cba6db","","null","<img  src='G_1.jpg' height='90'> <img id='selected'  src='G_3.jpg' height='90'> <img id='selected' src='G_7.jpg' height='90'> <img src='G_9.jpg' height='90'> <img src='G_5.jpg' height='90'>","null","Learning example 0",""
"","","","","","html-button-response","54","66502","0.0-33.0-0.0-0.0","43","1","2025-01-25 17:08:04","af8d355d56820e421d246a7037deb6e6","45.31.138.6","Mozilla/5.0 (Windows NT 10.0; Win64; x64; rv:134.0) Gecko/20100101 Firefox/134.0","","Firefox","134.0","Windows","10.0","https://app.prolific.com/","en-US,en;q=0.5","576704bffdff7a0001c12890","67949641171f97c04e14fb34","67951a42efdeead586cba6db","","243","<img  src='G_1.jpg' height='90'> <img id='selected'  src='G_3.jpg' height='90'> <img id='selected' src='G_7.jpg' height='90'> <img src='G_9.jpg' height='90'> <img src='G_5.jpg' height='90'>","1","Learning example 0",""
"","","","","","html-button-response","55","66884","0.0-33.1-0.1-0.1","43","1","2025-01-25 17:08:04","af8d355d56820e421d246a7037deb6e6","45.31.138.6","Mozilla/5.0 (Windows NT 10.0; Win64; x64; rv:134.0) Gecko/20100101 Firefox/134.0","","Firefox","134.0","Windows","10.0","https://app.prolific.com/","en-US,en;q=0.5","576704bffdff7a0001c12890","67949641171f97c04e14fb34","67951a42efdeead586cba6db","","380","<img  src='G_1.jpg' height='90'> <img id='selected'  src='G_3.jpg' height='90'> <img id='selected' src='G_7.jpg' height='90'> <img src='G_9.jpg' height='90'> <img src='G_5.jpg' height='90'>","2","Learning example 0",""
"","","","","","html-button-response","56","67089","0.0-34.0","43","1","2025-01-25 17:08:04","af8d355d56820e421d246a7037deb6e6","45.31.138.6","Mozilla/5.0 (Windows NT 10.0; Win64; x64; rv:134.0) Gecko/20100101 Firefox/134.0","","Firefox","134.0","Windows","10.0","https://app.prolific.com/","en-US,en;q=0.5","576704bffdff7a0001c12890","67949641171f97c04e14fb34","67951a42efdeead586cba6db","","null","<img  src='G_1.jpg' height='90'> <img   src='G_3.jpg' height='90'> <img  src='G_7.jpg' height='90'> <img src='G_9.jpg' height='90'> <img src='G_5.jpg' height='90'>","null","Learning example 0",""
"","","","","","html-button-response","57","67505","0.0-35.0","43","1","2025-01-25 17:08:04","af8d355d56820e421d246a7037deb6e6","45.31.138.6","Mozilla/5.0 (Windows NT 10.0; Win64; x64; rv:134.0) Gecko/20100101 Firefox/134.0","","Firefox","134.0","Windows","10.0","https://app.prolific.com/","en-US,en;q=0.5","576704bffdff7a0001c12890","67949641171f97c04e14fb34","67951a42efdeead586cba6db","","null","<img  src='G_1.jpg' height='90'> <img   src='G_3.jpg' height='90'> <img id='selected'  src='G_7.jpg' height='90'> <img src='G_9.jpg' height='90'> <img src='G_5.jpg' height='90'>","null","Learning example 0",""
"","","","","","html-button-response","58","67812","0.0-36.0","43","1","2025-01-25 17:08:04","af8d355d56820e421d246a7037deb6e6","45.31.138.6","Mozilla/5.0 (Windows NT 10.0; Win64; x64; rv:134.0) Gecko/20100101 Firefox/134.0","","Firefox","134.0","Windows","10.0","https://app.prolific.com/","en-US,en;q=0.5","576704bffdff7a0001c12890","67949641171f97c04e14fb34","67951a42efdeead586cba6db","","null","<img  src='G_1.jpg' height='90'> <img   src='G_3.jpg' height='90'> <img id='selected'  src='G_7.jpg' height='90'> <img id='selected' src='G_9.jpg' height='90'> <img src='G_5.jpg' height='90'>","null","Learning example 0",""
"","","","","","html-button-response","59","68120","0.0-37.0","43","1","2025-01-25 17:08:04","af8d355d56820e421d246a7037deb6e6","45.31.138.6","Mozilla/5.0 (Windows NT 10.0; Win64; x64; rv:134.0) Gecko/20100101 Firefox/134.0","","Firefox","134.0","Windows","10.0","https://app.prolific.com/","en-US,en;q=0.5","576704bffdff7a0001c12890","67949641171f97c04e14fb34","67951a42efdeead586cba6db","","null","<img  src='G_1.jpg' height='90'> <img   src='G_3.jpg' height='90'> <img id='selected'  src='G_7.jpg' height='90'> <img id='selected' src='G_9.jpg' height='90'> <img src='G_5.jpg' height='90'>","null","Learning example 0",""
"","","","","","html-button-response","60","68217","0.0-38.0-0.0-0.0","43","1","2025-01-25 17:08:04","af8d355d56820e421d246a7037deb6e6","45.31.138.6","Mozilla/5.0 (Windows NT 10.0; Win64; x64; rv:134.0) Gecko/20100101 Firefox/134.0","","Firefox","134.0","Windows","10.0","https://app.prolific.com/","en-US,en;q=0.5","576704bffdff7a0001c12890","67949641171f97c04e14fb34","67951a42efdeead586cba6db","","95","<img  src='G_1.jpg' height='90'> <img   src='G_3.jpg' height='90'> <img id='selected'  src='G_7.jpg' height='90'> <img id='selected' src='G_9.jpg' height='90'> <img src='G_5.jpg' height='90'>","2","Learning example 0",""
"","","","","","html-button-response","61","68536","0.0-38.1-0.1-0.1","43","1","2025-01-25 17:08:04","af8d355d56820e421d246a7037deb6e6","45.31.138.6","Mozilla/5.0 (Windows NT 10.0; Win64; x64; rv:134.0) Gecko/20100101 Firefox/134.0","","Firefox","134.0","Windows","10.0","https://app.prolific.com/","en-US,en;q=0.5","576704bffdff7a0001c12890","67949641171f97c04e14fb34","67951a42efdeead586cba6db","","317","<img  src='G_1.jpg' height='90'> <img   src='G_3.jpg' height='90'> <img id='selected'  src='G_7.jpg' height='90'> <img id='selected' src='G_9.jpg' height='90'> <img src='G_5.jpg' height='90'>","3","Learning example 0",""
"","","","","","html-button-response","62","68753","0.0-39.0","43","1","2025-01-25 17:08:04","af8d355d56820e421d246a7037deb6e6","45.31.138.6","Mozilla/5.0 (Windows NT 10.0; Win64; x64; rv:134.0) Gecko/20100101 Firefox/134.0","","Firefox","134.0","Windows","10.0","https://app.prolific.com/","en-US,en;q=0.5","576704bffdff7a0001c12890","67949641171f97c04e14fb34","67951a42efdeead586cba6db","","null","<img  src='G_1.jpg' height='90'> <img   src='G_3.jpg' height='90'> <img   src='G_7.jpg' height='90'> <img  src='G_9.jpg' height='90'> <img src='G_5.jpg' height='90'>","null","Learning example 0",""
"","","","","","html-button-response","63","69167","0.0-40.0","43","1","2025-01-25 17:08:04","af8d355d56820e421d246a7037deb6e6","45.31.138.6","Mozilla/5.0 (Windows NT 10.0; Win64; x64; rv:134.0) Gecko/20100101 Firefox/134.0","","Firefox","134.0","Windows","10.0","https://app.prolific.com/","en-US,en;q=0.5","576704bffdff7a0001c12890","67949641171f97c04e14fb34","67951a42efdeead586cba6db","","null","<img  src='G_1.jpg' height='90'> <img   src='G_3.jpg' height='90'> <img   src='G_7.jpg' height='90'> <img id='selected'  src='G_9.jpg' height='90'> <img src='G_5.jpg' height='90'>","null","Learning example 0",""
"","","","","","html-button-response","64","69476","0.0-41.0","43","1","2025-01-25 17:08:04","af8d355d56820e421d246a7037deb6e6","45.31.138.6","Mozilla/5.0 (Windows NT 10.0; Win64; x64; rv:134.0) Gecko/20100101 Firefox/134.0","","Firefox","134.0","Windows","10.0","https://app.prolific.com/","en-US,en;q=0.5","576704bffdff7a0001c12890","67949641171f97c04e14fb34","67951a42efdeead586cba6db","","null","<img  src='G_1.jpg' height='90'> <img   src='G_3.jpg' height='90'> <img   src='G_7.jpg' height='90'> <img id='selected'  src='G_9.jpg' height='90'> <img id='selected' src='G_5.jpg' height='90'>","null","Learning example 0",""
"","","","","","html-button-response","65","69783","0.0-42.0","43","1","2025-01-25 17:08:04","af8d355d56820e421d246a7037deb6e6","45.31.138.6","Mozilla/5.0 (Windows NT 10.0; Win64; x64; rv:134.0) Gecko/20100101 Firefox/134.0","","Firefox","134.0","Windows","10.0","https://app.prolific.com/","en-US,en;q=0.5","576704bffdff7a0001c12890","67949641171f97c04e14fb34","67951a42efdeead586cba6db","","null","<img  src='G_1.jpg' height='90'> <img   src='G_3.jpg' height='90'> <img   src='G_7.jpg' height='90'> <img id='selected'  src='G_9.jpg' height='90'> <img id='selected' src='G_5.jpg' height='90'>","null","Learning example 0",""
"","","","","","html-button-response","66","69893","0.0-43.0-0.0-0.0","43","1","2025-01-25 17:08:04","af8d355d56820e421d246a7037deb6e6","45.31.138.6","Mozilla/5.0 (Windows NT 10.0; Win64; x64; rv:134.0) Gecko/20100101 Firefox/134.0","","Firefox","134.0","Windows","10.0","https://app.prolific.com/","en-US,en;q=0.5","576704bffdff7a0001c12890","67949641171f97c04e14fb34","67951a42efdeead586cba6db","","108","<img  src='G_1.jpg' height='90'> <img   src='G_3.jpg' height='90'> <img   src='G_7.jpg' height='90'> <img id='selected'  src='G_9.jpg' height='90'> <img id='selected' src='G_5.jpg' height='90'>","4","Learning example 0",""
"","","","","","html-button-response","67","70900","0.0-43.1-0.1-0.1","43","1","2025-01-25 17:08:04","af8d355d56820e421d246a7037deb6e6","45.31.138.6","Mozilla/5.0 (Windows NT 10.0; Win64; x64; rv:134.0) Gecko/20100101 Firefox/134.0","","Firefox","134.0","Windows","10.0","https://app.prolific.com/","en-US,en;q=0.5","576704bffdff7a0001c12890","67949641171f97c04e14fb34","67951a42efdeead586cba6db","","1005","<img  src='G_1.jpg' height='90'> <img   src='G_3.jpg' height='90'> <img   src='G_7.jpg' height='90'> <img id='selected'  src='G_9.jpg' height='90'> <img id='selected' src='G_5.jpg' height='90'>","3","Learning example 0",""
"","","","","","html-button-response","68","71107","0.0-44.0","43","1","2025-01-25 17:08:04","af8d355d56820e421d246a7037deb6e6","45.31.138.6","Mozilla/5.0 (Windows NT 10.0; Win64; x64; rv:134.0) Gecko/20100101 Firefox/134.0","","Firefox","134.0","Windows","10.0","https://app.prolific.com/","en-US,en;q=0.5","576704bffdff7a0001c12890","67949641171f97c04e14fb34","67951a42efdeead586cba6db","","null","<img  src='G_1.jpg' height='90'> <img   src='G_3.jpg' height='90'> <img   src='G_7.jpg' height='90'> <img   src='G_9.jpg' height='90'> <img  src='G_5.jpg' height='90'>","null","Learning example 0",""
"","","","","","html-keyboard-response","69","75327","0.0-45.0","43","1","2025-01-25 17:08:04","af8d355d56820e421d246a7037deb6e6","45.31.138.6","Mozilla/5.0 (Windows NT 10.0; Win64; x64; rv:134.0) Gecko/20100101 Firefox/134.0","","Firefox","134.0","Windows","10.0","https://app.prolific.com/","en-US,en;q=0.5","576704bffdff7a0001c12890","67949641171f97c04e14fb34","67951a42efdeead586cba6db","","4219","[""Final order was 1,2,3,4,5. The initial order was 2,1,3,4,5.<br>It took 1 swaps to sort it correctly with Omgne Sort. <br><br>Press Enter to continue.""]","enter","",""
"","","","","","html-keyboard-response","70","77215","0.0-46.0","43","1","2025-01-25 17:08:04","af8d355d56820e421d246a7037deb6e6","45.31.138.6","Mozilla/5.0 (Windows NT 10.0; Win64; x64; rv:134.0) Gecko/20100101 Firefox/134.0","","Firefox","134.0","Windows","10.0","https://app.prolific.com/","en-US,en;q=0.5","576704bffdff7a0001c12890","67949641171f97c04e14fb34","67951a42efdeead586cba6db","","1884","[""Example 2<br><br>You will watch Omnge Sort in action. Try to identify any patterns in the comparisons made by this method. <br><br>Press Enter to continue.""]","enter","",""
"","","","","","html-keyboard-response","71","77729","0.0-47.0","43","1","2025-01-25 17:08:04","af8d355d56820e421d246a7037deb6e6","45.31.138.6","Mozilla/5.0 (Windows NT 10.0; Win64; x64; rv:134.0) Gecko/20100101 Firefox/134.0","","Firefox","134.0","Windows","10.0","https://app.prolific.com/","en-US,en;q=0.5","576704bffdff7a0001c12890","67949641171f97c04e14fb34","67951a42efdeead586cba6db","","null","<img id='selected' src='G_6.jpg' height='90'> <img src='G_2.jpg' height='90'> <img src='G_7.jpg' height='90'> <img src='G_1.jpg' height='90'> <img src='G_5.jpg' height='90'> <img src='G_8.jpg' height='90'> <img src='G_4.jpg' height='90'> <img src='G_3.jpg' height='90'>","null","Animation1",""
"","","","","","html-keyboard-response","72","78241","0.0-48.0","43","1","2025-01-25 17:08:04","af8d355d56820e421d246a7037deb6e6","45.31.138.6","Mozilla/5.0 (Windows NT 10.0; Win64; x64; rv:134.0) Gecko/20100101 Firefox/134.0","","Firefox","134.0","Windows","10.0","https://app.prolific.com/","en-US,en;q=0.5","576704bffdff7a0001c12890","67949641171f97c04e14fb34","67951a42efdeead586cba6db","","null","<img id='selected' src='G_6.jpg' height='90'> <img id='selected' src='G_2.jpg' height='90'> <img src='G_7.jpg' height='90'> <img src='G_1.jpg' height='90'> <img src='G_5.jpg' height='90'> <img src='G_8.jpg' height='90'> <img src='G_4.jpg' height='90'> <img src='G_3.jpg' height='90'>","null","Animation1",""
"","","","","","html-keyboard-response","73","78751","0.0-49.0","43","1","2025-01-25 17:08:04","af8d355d56820e421d246a7037deb6e6","45.31.138.6","Mozilla/5.0 (Windows NT 10.0; Win64; x64; rv:134.0) Gecko/20100101 Firefox/134.0","","Firefox","134.0","Windows","10.0","https://app.prolific.com/","en-US,en;q=0.5","576704bffdff7a0001c12890","67949641171f97c04e14fb34","67951a42efdeead586cba6db","","null","<img id='selected' src='G_6.jpg' height='90'> <img id='selected' src='G_2.jpg' height='90'> <img src='G_7.jpg' height='90'> <img src='G_1.jpg' height='90'> <img src='G_5.jpg' height='90'> <img src='G_8.jpg' height='90'> <img src='G_4.jpg' height='90'> <img src='G_3.jpg' height='90'>","null","Animation1",""
"","","","","","html-keyboard-response","74","79059","0.0-50.0","43","1","2025-01-25 17:08:04","af8d355d56820e421d246a7037deb6e6","45.31.138.6","Mozilla/5.0 (Windows NT 10.0; Win64; x64; rv:134.0) Gecko/20100101 Firefox/134.0","","Firefox","134.0","Windows","10.0","https://app.prolific.com/","en-US,en;q=0.5","576704bffdff7a0001c12890","67949641171f97c04e14fb34","67951a42efdeead586cba6db","","null","<img  src='G_6.jpg' height='90'> <img  src='G_2.jpg' height='90'> <img src='G_7.jpg' height='90'> <img src='G_1.jpg' height='90'> <img src='G_5.jpg' height='90'> <img src='G_8.jpg' height='90'> <img src='G_4.jpg' height='90'> <img src='G_3.jpg' height='90'>","null","Animation1",""
"","","","","","html-keyboard-response","75","79568","0.0-51.0","43","1","2025-01-25 17:08:04","af8d355d56820e421d246a7037deb6e6","45.31.138.6","Mozilla/5.0 (Windows NT 10.0; Win64; x64; rv:134.0) Gecko/20100101 Firefox/134.0","","Firefox","134.0","Windows","10.0","https://app.prolific.com/","en-US,en;q=0.5","576704bffdff7a0001c12890","67949641171f97c04e14fb34","67951a42efdeead586cba6db","","null","<img  src='G_6.jpg' height='90'> <img id='selected'  src='G_2.jpg' height='90'> <img src='G_7.jpg' height='90'> <img src='G_1.jpg' height='90'> <img src='G_5.jpg' height='90'> <img src='G_8.jpg' height='90'> <img src='G_4.jpg' height='90'> <img src='G_3.jpg' height='90'>","null","Animation1",""
"","","","","","html-keyboard-response","76","80107","0.0-52.0","43","1","2025-01-25 17:08:04","af8d355d56820e421d246a7037deb6e6","45.31.138.6","Mozilla/5.0 (Windows NT 10.0; Win64; x64; rv:134.0) Gecko/20100101 Firefox/134.0","","Firefox","134.0","Windows","10.0","https://app.prolific.com/","en-US,en;q=0.5","576704bffdff7a0001c12890","67949641171f97c04e14fb34","67951a42efdeead586cba6db","","null","<img  src='G_6.jpg' height='90'> <img id='selected'  src='G_2.jpg' height='90'> <img id='selected' src='G_7.jpg' height='90'> <img src='G_1.jpg' height='90'> <img src='G_5.jpg' height='90'> <img src='G_8.jpg' height='90'> <img src='G_4.jpg' height='90'> <img src='G_3.jpg' height='90'>","null","Animation1",""
"","","","","","html-keyboard-response","77","80664","0.0-53.0","43","1","2025-01-25 17:08:04","af8d355d56820e421d246a7037deb6e6","45.31.138.6","Mozilla/5.0 (Windows NT 10.0; Win64; x64; rv:134.0) Gecko/20100101 Firefox/134.0","","Firefox","134.0","Windows","10.0","https://app.prolific.com/","en-US,en;q=0.5","576704bffdff7a0001c12890","67949641171f97c04e14fb34","67951a42efdeead586cba6db","","null","<img  src='G_6.jpg' height='90'> <img id='swapped' src='G_7.jpg' height='90'> <img id='swapped'  src='G_2.jpg' height='90'> <img src='G_1.jpg' height='90'> <img src='G_5.jpg' height='90'> <img src='G_8.jpg' height='90'> <img src='G_4.jpg' height='90'> <img src='G_3.jpg' height='90'>","null","Animation1",""
"","","","","","html-keyboard-response","78","80972","0.0-54.0","43","1","2025-01-25 17:08:04","af8d355d56820e421d246a7037deb6e6","45.31.138.6","Mozilla/5.0 (Windows NT 10.0; Win64; x64; rv:134.0) Gecko/20100101 Firefox/134.0","","Firefox","134.0","Windows","10.0","https://app.prolific.com/","en-US,en;q=0.5","576704bffdff7a0001c12890","67949641171f97c04e14fb34","67951a42efdeead586cba6db","","null","<img  src='G_6.jpg' height='90'> <img  src='G_7.jpg' height='90'> <img   src='G_2.jpg' height='90'> <img src='G_1.jpg' height='90'> <img src='G_5.jpg' height='90'> <img src='G_8.jpg' height='90'> <img src='G_4.jpg' height='90'> <img src='G_3.jpg' height='90'>","null","Animation1",""
"","","","","","html-keyboard-response","79","81481","0.0-55.0","43","1","2025-01-25 17:08:04","af8d355d56820e421d246a7037deb6e6","45.31.138.6","Mozilla/5.0 (Windows NT 10.0; Win64; x64; rv:134.0) Gecko/20100101 Firefox/134.0","","Firefox","134.0","Windows","10.0","https://app.prolific.com/","en-US,en;q=0.5","576704bffdff7a0001c12890","67949641171f97c04e14fb34","67951a42efdeead586cba6db","","null","<img id='selected'  src='G_6.jpg' height='90'> <img  src='G_7.jpg' height='90'> <img   src='G_2.jpg' height='90'> <img src='G_1.jpg' height='90'> <img src='G_5.jpg' height='90'> <img src='G_8.jpg' height='90'> <img src='G_4.jpg' height='90'> <img src='G_3.jpg' height='90'>","null","Animation1",""
"","","","","","html-keyboard-response","80","81992","0.0-56.0","43","1","2025-01-25 17:08:04","af8d355d56820e421d246a7037deb6e6","45.31.138.6","Mozilla/5.0 (Windows NT 10.0; Win64; x64; rv:134.0) Gecko/20100101 Firefox/134.0","","Firefox","134.0","Windows","10.0","https://app.prolific.com/","en-US,en;q=0.5","576704bffdff7a0001c12890","67949641171f97c04e14fb34","67951a42efdeead586cba6db","","null","<img id='selected'  src='G_6.jpg' height='90'> <img id='selected'  src='G_7.jpg' height='90'> <img   src='G_2.jpg' height='90'> <img src='G_1.jpg' height='90'> <img src='G_5.jpg' height='90'> <img src='G_8.jpg' height='90'> <img src='G_4.jpg' height='90'> <img src='G_3.jpg' height='90'>","null","Animation1",""
"","","","","","html-keyboard-response","81","82501","0.0-57.0","43","1","2025-01-25 17:08:04","af8d355d56820e421d246a7037deb6e6","45.31.138.6","Mozilla/5.0 (Windows NT 10.0; Win64; x64; rv:134.0) Gecko/20100101 Firefox/134.0","","Firefox","134.0","Windows","10.0","https://app.prolific.com/","en-US,en;q=0.5","576704bffdff7a0001c12890","67949641171f97c04e14fb34","67951a42efdeead586cba6db","","null","<img id='swapped'  src='G_7.jpg' height='90'> <img id='swapped'  src='G_6.jpg' height='90'> <img   src='G_2.jpg' height='90'> <img src='G_1.jpg' height='90'> <img src='G_5.jpg' height='90'> <img src='G_8.jpg' height='90'> <img src='G_4.jpg' height='90'> <img src='G_3.jpg' height='90'>","null","Animation1",""
"","","","","","html-keyboard-response","82","82810","0.0-58.0","43","1","2025-01-25 17:08:04","af8d355d56820e421d246a7037deb6e6","45.31.138.6","Mozilla/5.0 (Windows NT 10.0; Win64; x64; rv:134.0) Gecko/20100101 Firefox/134.0","","Firefox","134.0","Windows","10.0","https://app.prolific.com/","en-US,en;q=0.5","576704bffdff7a0001c12890","67949641171f97c04e14fb34","67951a42efdeead586cba6db","","null","<img   src='G_7.jpg' height='90'> <img   src='G_6.jpg' height='90'> <img   src='G_2.jpg' height='90'> <img src='G_1.jpg' height='90'> <img src='G_5.jpg' height='90'> <img src='G_8.jpg' height='90'> <img src='G_4.jpg' height='90'> <img src='G_3.jpg' height='90'>","null","Animation1",""
"","","","","","html-keyboard-response","83","83318","0.0-59.0","43","1","2025-01-25 17:08:04","af8d355d56820e421d246a7037deb6e6","45.31.138.6","Mozilla/5.0 (Windows NT 10.0; Win64; x64; rv:134.0) Gecko/20100101 Firefox/134.0","","Firefox","134.0","Windows","10.0","https://app.prolific.com/","en-US,en;q=0.5","576704bffdff7a0001c12890","67949641171f97c04e14fb34","67951a42efdeead586cba6db","","null","<img   src='G_7.jpg' height='90'> <img   src='G_6.jpg' height='90'> <img id='selected'   src='G_2.jpg' height='90'> <img src='G_1.jpg' height='90'> <img src='G_5.jpg' height='90'> <img src='G_8.jpg' height='90'> <img src='G_4.jpg' height='90'> <img src='G_3.jpg' height='90'>","null","Animation1",""
"","","","","","html-keyboard-response","84","83827","0.0-60.0","43","1","2025-01-25 17:08:04","af8d355d56820e421d246a7037deb6e6","45.31.138.6","Mozilla/5.0 (Windows NT 10.0; Win64; x64; rv:134.0) Gecko/20100101 Firefox/134.0","","Firefox","134.0","Windows","10.0","https://app.prolific.com/","en-US,en;q=0.5","576704bffdff7a0001c12890","67949641171f97c04e14fb34","67951a42efdeead586cba6db","","null","<img   src='G_7.jpg' height='90'> <img   src='G_6.jpg' height='90'> <img id='selected'   src='G_2.jpg' height='90'> <img id='selected' src='G_1.jpg' height='90'> <img src='G_5.jpg' height='90'> <img src='G_8.jpg' height='90'> <img src='G_4.jpg' height='90'> <img src='G_3.jpg' height='90'>","null","Animation1",""
"","","","","","html-keyboard-response","85","84336","0.0-61.0","43","1","2025-01-25 17:08:04","af8d355d56820e421d246a7037deb6e6","45.31.138.6","Mozilla/5.0 (Windows NT 10.0; Win64; x64; rv:134.0) Gecko/20100101 Firefox/134.0","","Firefox","134.0","Windows","10.0","https://app.prolific.com/","en-US,en;q=0.5","576704bffdff7a0001c12890","67949641171f97c04e14fb34","67951a42efdeead586cba6db","","null","<img   src='G_7.jpg' height='90'> <img   src='G_6.jpg' height='90'> <img id='swapped' src='G_1.jpg' height='90'> <img id='swapped'   src='G_2.jpg' height='90'> <img src='G_5.jpg' height='90'> <img src='G_8.jpg' height='90'> <img src='G_4.jpg' height='90'> <img src='G_3.jpg' height='90'>","null","Animation1",""
"","","","","","html-keyboard-response","86","84644","0.0-62.0","43","1","2025-01-25 17:08:04","af8d355d56820e421d246a7037deb6e6","45.31.138.6","Mozilla/5.0 (Windows NT 10.0; Win64; x64; rv:134.0) Gecko/20100101 Firefox/134.0","","Firefox","134.0","Windows","10.0","https://app.prolific.com/","en-US,en;q=0.5","576704bffdff7a0001c12890","67949641171f97c04e14fb34","67951a42efdeead586cba6db","","null","<img   src='G_7.jpg' height='90'> <img   src='G_6.jpg' height='90'> <img  src='G_1.jpg' height='90'> <img    src='G_2.jpg' height='90'> <img src='G_5.jpg' height='90'> <img src='G_8.jpg' height='90'> <img src='G_4.jpg' height='90'> <img src='G_3.jpg' height='90'>","null","Animation1",""
"","","","","","html-keyboard-response","87","85154","0.0-63.0","43","1","2025-01-25 17:08:04","af8d355d56820e421d246a7037deb6e6","45.31.138.6","Mozilla/5.0 (Windows NT 10.0; Win64; x64; rv:134.0) Gecko/20100101 Firefox/134.0","","Firefox","134.0","Windows","10.0","https://app.prolific.com/","en-US,en;q=0.5","576704bffdff7a0001c12890","67949641171f97c04e14fb34","67951a42efdeead586cba6db","","null","<img   src='G_7.jpg' height='90'> <img id='selected'   src='G_6.jpg' height='90'> <img  src='G_1.jpg' height='90'> <img    src='G_2.jpg' height='90'> <img src='G_5.jpg' height='90'> <img src='G_8.jpg' height='90'> <img src='G_4.jpg' height='90'> <img src='G_3.jpg' height='90'>","null","Animation1",""
"","","","","","html-keyboard-response","88","85678","0.0-64.0","43","1","2025-01-25 17:08:04","af8d355d56820e421d246a7037deb6e6","45.31.138.6","Mozilla/5.0 (Windows NT 10.0; Win64; x64; rv:134.0) Gecko/20100101 Firefox/134.0","","Firefox","134.0","Windows","10.0","https://app.prolific.com/","en-US,en;q=0.5","576704bffdff7a0001c12890","67949641171f97c04e14fb34","67951a42efdeead586cba6db","","null","<img   src='G_7.jpg' height='90'> <img id='selected'   src='G_6.jpg' height='90'> <img id='selected'  src='G_1.jpg' height='90'> <img    src='G_2.jpg' height='90'> <img src='G_5.jpg' height='90'> <img src='G_8.jpg' height='90'> <img src='G_4.jpg' height='90'> <img src='G_3.jpg' height='90'>","null","Animation1",""
"","","","","","html-keyboard-response","89","86189","0.0-65.0","43","1","2025-01-25 17:08:04","af8d355d56820e421d246a7037deb6e6","45.31.138.6","Mozilla/5.0 (Windows NT 10.0; Win64; x64; rv:134.0) Gecko/20100101 Firefox/134.0","","Firefox","134.0","Windows","10.0","https://app.prolific.com/","en-US,en;q=0.5","576704bffdff7a0001c12890","67949641171f97c04e14fb34","67951a42efdeead586cba6db","","null","<img   src='G_7.jpg' height='90'> <img id='swapped'  src='G_1.jpg' height='90'> <img id='swapped'   src='G_6.jpg' height='90'> <img    src='G_2.jpg' height='90'> <img src='G_5.jpg' height='90'> <img src='G_8.jpg' height='90'> <img src='G_4.jpg' height='90'> <img src='G_3.jpg' height='90'>","null","Animation1",""
"","","","","","html-keyboard-response","90","86497","0.0-66.0","43","1","2025-01-25 17:08:04","af8d355d56820e421d246a7037deb6e6","45.31.138.6","Mozilla/5.0 (Windows NT 10.0; Win64; x64; rv:134.0) Gecko/20100101 Firefox/134.0","","Firefox","134.0","Windows","10.0","https://app.prolific.com/","en-US,en;q=0.5","576704bffdff7a0001c12890","67949641171f97c04e14fb34","67951a42efdeead586cba6db","","null","<img   src='G_7.jpg' height='90'> <img   src='G_1.jpg' height='90'> <img    src='G_6.jpg' height='90'> <img    src='G_2.jpg' height='90'> <img src='G_5.jpg' height='90'> <img src='G_8.jpg' height='90'> <img src='G_4.jpg' height='90'> <img src='G_3.jpg' height='90'>","null","Animation1",""
"","","","","","html-keyboard-response","91","87005","0.0-67.0","43","1","2025-01-25 17:08:04","af8d355d56820e421d246a7037deb6e6","45.31.138.6","Mozilla/5.0 (Windows NT 10.0; Win64; x64; rv:134.0) Gecko/20100101 Firefox/134.0","","Firefox","134.0","Windows","10.0","https://app.prolific.com/","en-US,en;q=0.5","576704bffdff7a0001c12890","67949641171f97c04e14fb34","67951a42efdeead586cba6db","","null","<img id='selected'   src='G_7.jpg' height='90'> <img   src='G_1.jpg' height='90'> <img    src='G_6.jpg' height='90'> <img    src='G_2.jpg' height='90'> <img src='G_5.jpg' height='90'> <img src='G_8.jpg' height='90'> <img src='G_4.jpg' height='90'> <img src='G_3.jpg' height='90'>","null","Animation1",""
"","","","","","html-keyboard-response","92","87514","0.0-68.0","43","1","2025-01-25 17:08:04","af8d355d56820e421d246a7037deb6e6","45.31.138.6","Mozilla/5.0 (Windows NT 10.0; Win64; x64; rv:134.0) Gecko/20100101 Firefox/134.0","","Firefox","134.0","Windows","10.0","https://app.prolific.com/","en-US,en;q=0.5","576704bffdff7a0001c12890","67949641171f97c04e14fb34","67951a42efdeead586cba6db","","null","<img id='selected'   src='G_7.jpg' height='90'> <img id='selected'   src='G_1.jpg' height='90'> <img    src='G_6.jpg' height='90'> <img    src='G_2.jpg' height='90'> <img src='G_5.jpg' height='90'> <img src='G_8.jpg' height='90'> <img src='G_4.jpg' height='90'> <img src='G_3.jpg' height='90'>","null","Animation1",""
"","","","","","html-keyboard-response","93","88024","0.0-69.0","43","1","2025-01-25 17:08:04","af8d355d56820e421d246a7037deb6e6","45.31.138.6","Mozilla/5.0 (Windows NT 10.0; Win64; x64; rv:134.0) Gecko/20100101 Firefox/134.0","","Firefox","134.0","Windows","10.0","https://app.prolific.com/","en-US,en;q=0.5","576704bffdff7a0001c12890","67949641171f97c04e14fb34","67951a42efdeead586cba6db","","null","<img id='swapped'   src='G_1.jpg' height='90'> <img id='swapped'   src='G_7.jpg' height='90'> <img    src='G_6.jpg' height='90'> <img    src='G_2.jpg' height='90'> <img src='G_5.jpg' height='90'> <img src='G_8.jpg' height='90'> <img src='G_4.jpg' height='90'> <img src='G_3.jpg' height='90'>","null","Animation1",""
"","","","","","html-keyboard-response","94","88333","0.0-70.0","43","1","2025-01-25 17:08:04","af8d355d56820e421d246a7037deb6e6","45.31.138.6","Mozilla/5.0 (Windows NT 10.0; Win64; x64; rv:134.0) Gecko/20100101 Firefox/134.0","","Firefox","134.0","Windows","10.0","https://app.prolific.com/","en-US,en;q=0.5","576704bffdff7a0001c12890","67949641171f97c04e14fb34","67951a42efdeead586cba6db","","null","<img    src='G_1.jpg' height='90'> <img    src='G_7.jpg' height='90'> <img    src='G_6.jpg' height='90'> <img    src='G_2.jpg' height='90'> <img src='G_5.jpg' height='90'> <img src='G_8.jpg' height='90'> <img src='G_4.jpg' height='90'> <img src='G_3.jpg' height='90'>","null","Animation1",""
"","","","","","html-keyboard-response","95","88842","0.0-71.0","43","1","2025-01-25 17:08:04","af8d355d56820e421d246a7037deb6e6","45.31.138.6","Mozilla/5.0 (Windows NT 10.0; Win64; x64; rv:134.0) Gecko/20100101 Firefox/134.0","","Firefox","134.0","Windows","10.0","https://app.prolific.com/","en-US,en;q=0.5","576704bffdff7a0001c12890","67949641171f97c04e14fb34","67951a42efdeead586cba6db","","null","<img    src='G_1.jpg' height='90'> <img    src='G_7.jpg' height='90'> <img    src='G_6.jpg' height='90'> <img id='selected'    src='G_2.jpg' height='90'> <img src='G_5.jpg' height='90'> <img src='G_8.jpg' height='90'> <img src='G_4.jpg' height='90'> <img src='G_3.jpg' height='90'>","null","Animation1",""
"","","","","","html-keyboard-response","96","89351","0.0-72.0","43","1","2025-01-25 17:08:04","af8d355d56820e421d246a7037deb6e6","45.31.138.6","Mozilla/5.0 (Windows NT 10.0; Win64; x64; rv:134.0) Gecko/20100101 Firefox/134.0","","Firefox","134.0","Windows","10.0","https://app.prolific.com/","en-US,en;q=0.5","576704bffdff7a0001c12890","67949641171f97c04e14fb34","67951a42efdeead586cba6db","","null","<img    src='G_1.jpg' height='90'> <img    src='G_7.jpg' height='90'> <img    src='G_6.jpg' height='90'> <img id='selected'    src='G_2.jpg' height='90'> <img id='selected' src='G_5.jpg' height='90'> <img src='G_8.jpg' height='90'> <img src='G_4.jpg' height='90'> <img src='G_3.jpg' height='90'>","null","Animation1",""
"","","","","","html-keyboard-response","97","89859","0.0-73.0","43","1","2025-01-25 17:08:04","af8d355d56820e421d246a7037deb6e6","45.31.138.6","Mozilla/5.0 (Windows NT 10.0; Win64; x64; rv:134.0) Gecko/20100101 Firefox/134.0","","Firefox","134.0","Windows","10.0","https://app.prolific.com/","en-US,en;q=0.5","576704bffdff7a0001c12890","67949641171f97c04e14fb34","67951a42efdeead586cba6db","","null","<img    src='G_1.jpg' height='90'> <img    src='G_7.jpg' height='90'> <img    src='G_6.jpg' height='90'> <img id='swapped' src='G_5.jpg' height='90'> <img id='swapped'    src='G_2.jpg' height='90'> <img src='G_8.jpg' height='90'> <img src='G_4.jpg' height='90'> <img src='G_3.jpg' height='90'>","null","Animation1",""
"","","","","","html-keyboard-response","98","90168","0.0-74.0","43","1","2025-01-25 17:08:04","af8d355d56820e421d246a7037deb6e6","45.31.138.6","Mozilla/5.0 (Windows NT 10.0; Win64; x64; rv:134.0) Gecko/20100101 Firefox/134.0","","Firefox","134.0","Windows","10.0","https://app.prolific.com/","en-US,en;q=0.5","576704bffdff7a0001c12890","67949641171f97c04e14fb34","67951a42efdeead586cba6db","","null","<img    src='G_1.jpg' height='90'> <img    src='G_7.jpg' height='90'> <img    src='G_6.jpg' height='90'> <img  src='G_5.jpg' height='90'> <img     src='G_2.jpg' height='90'> <img src='G_8.jpg' height='90'> <img src='G_4.jpg' height='90'> <img src='G_3.jpg' height='90'>","null","Animation1",""
"","","","","","html-keyboard-response","99","90693","0.0-75.0","43","1","2025-01-25 17:08:04","af8d355d56820e421d246a7037deb6e6","45.31.138.6","Mozilla/5.0 (Windows NT 10.0; Win64; x64; rv:134.0) Gecko/20100101 Firefox/134.0","","Firefox","134.0","Windows","10.0","https://app.prolific.com/","en-US,en;q=0.5","576704bffdff7a0001c12890","67949641171f97c04e14fb34","67951a42efdeead586cba6db","","null","<img    src='G_1.jpg' height='90'> <img    src='G_7.jpg' height='90'> <img id='selected'    src='G_6.jpg' height='90'> <img  src='G_5.jpg' height='90'> <img     src='G_2.jpg' height='90'> <img src='G_8.jpg' height='90'> <img src='G_4.jpg' height='90'> <img src='G_3.jpg' height='90'>","null","Animation1",""
"","","","","","html-keyboard-response","100","91203","0.0-76.0","43","1","2025-01-25 17:08:04","af8d355d56820e421d246a7037deb6e6","45.31.138.6","Mozilla/5.0 (Windows NT 10.0; Win64; x64; rv:134.0) Gecko/20100101 Firefox/134.0","","Firefox","134.0","Windows","10.0","https://app.prolific.com/","en-US,en;q=0.5","576704bffdff7a0001c12890","67949641171f97c04e14fb34","67951a42efdeead586cba6db","","null","<img    src='G_1.jpg' height='90'> <img    src='G_7.jpg' height='90'> <img id='selected'    src='G_6.jpg' height='90'> <img id='selected'  src='G_5.jpg' height='90'> <img     src='G_2.jpg' height='90'> <img src='G_8.jpg' height='90'> <img src='G_4.jpg' height='90'> <img src='G_3.jpg' height='90'>","null","Animation1",""
"","","","","","html-keyboard-response","101","91713","0.0-77.0","43","1","2025-01-25 17:08:04","af8d355d56820e421d246a7037deb6e6","45.31.138.6","Mozilla/5.0 (Windows NT 10.0; Win64; x64; rv:134.0) Gecko/20100101 Firefox/134.0","","Firefox","134.0","Windows","10.0","https://app.prolific.com/","en-US,en;q=0.5","576704bffdff7a0001c12890","67949641171f97c04e14fb34","67951a42efdeead586cba6db","","null","<img    src='G_1.jpg' height='90'> <img    src='G_7.jpg' height='90'> <img id='swapped'  src='G_5.jpg' height='90'> <img id='swapped'    src='G_6.jpg' height='90'> <img     src='G_2.jpg' height='90'> <img src='G_8.jpg' height='90'> <img src='G_4.jpg' height='90'> <img src='G_3.jpg' height='90'>","null","Animation1",""
"","","","","","html-keyboard-response","102","92023","0.0-78.0","43","1","2025-01-25 17:08:04","af8d355d56820e421d246a7037deb6e6","45.31.138.6","Mozilla/5.0 (Windows NT 10.0; Win64; x64; rv:134.0) Gecko/20100101 Firefox/134.0","","Firefox","134.0","Windows","10.0","https://app.prolific.com/","en-US,en;q=0.5","576704bffdff7a0001c12890","67949641171f97c04e14fb34","67951a42efdeead586cba6db","","null","<img    src='G_1.jpg' height='90'> <img    src='G_7.jpg' height='90'> <img   src='G_5.jpg' height='90'> <img     src='G_6.jpg' height='90'> <img     src='G_2.jpg' height='90'> <img src='G_8.jpg' height='90'> <img src='G_4.jpg' height='90'> <img src='G_3.jpg' height='90'>","null","Animation1",""
"","","","","","html-keyboard-response","103","92533","0.0-79.0","43","1","2025-01-25 17:08:04","af8d355d56820e421d246a7037deb6e6","45.31.138.6","Mozilla/5.0 (Windows NT 10.0; Win64; x64; rv:134.0) Gecko/20100101 Firefox/134.0","","Firefox","134.0","Windows","10.0","https://app.prolific.com/","en-US,en;q=0.5","576704bffdff7a0001c12890","67949641171f97c04e14fb34","67951a42efdeead586cba6db","","null","<img    src='G_1.jpg' height='90'> <img id='selected'    src='G_7.jpg' height='90'> <img   src='G_5.jpg' height='90'> <img     src='G_6.jpg' height='90'> <img     src='G_2.jpg' height='90'> <img src='G_8.jpg' height='90'> <img src='G_4.jpg' height='90'> <img src='G_3.jpg' height='90'>","null","Animation1",""
"","","","","","html-keyboard-response","104","93042","0.0-80.0","43","1","2025-01-25 17:08:04","af8d355d56820e421d246a7037deb6e6","45.31.138.6","Mozilla/5.0 (Windows NT 10.0; Win64; x64; rv:134.0) Gecko/20100101 Firefox/134.0","","Firefox","134.0","Windows","10.0","https://app.prolific.com/","en-US,en;q=0.5","576704bffdff7a0001c12890","67949641171f97c04e14fb34","67951a42efdeead586cba6db","","null","<img    src='G_1.jpg' height='90'> <img id='selected'    src='G_7.jpg' height='90'> <img id='selected'   src='G_5.jpg' height='90'> <img     src='G_6.jpg' height='90'> <img     src='G_2.jpg' height='90'> <img src='G_8.jpg' height='90'> <img src='G_4.jpg' height='90'> <img src='G_3.jpg' height='90'>","null","Animation1",""
"","","","","","html-keyboard-response","105","93553","0.0-81.0","43","1","2025-01-25 17:08:04","af8d355d56820e421d246a7037deb6e6","45.31.138.6","Mozilla/5.0 (Windows NT 10.0; Win64; x64; rv:134.0) Gecko/20100101 Firefox/134.0","","Firefox","134.0","Windows","10.0","https://app.prolific.com/","en-US,en;q=0.5","576704bffdff7a0001c12890","67949641171f97c04e14fb34","67951a42efdeead586cba6db","","null","<img    src='G_1.jpg' height='90'> <img id='swapped'   src='G_5.jpg' height='90'> <img id='swapped'    src='G_7.jpg' height='90'> <img     src='G_6.jpg' height='90'> <img     src='G_2.jpg' height='90'> <img src='G_8.jpg' height='90'> <img src='G_4.jpg' height='90'> <img src='G_3.jpg' height='90'>","null","Animation1",""
"","","","","","html-keyboard-response","106","93862","0.0-82.0","43","1","2025-01-25 17:08:04","af8d355d56820e421d246a7037deb6e6","45.31.138.6","Mozilla/5.0 (Windows NT 10.0; Win64; x64; rv:134.0) Gecko/20100101 Firefox/134.0","","Firefox","134.0","Windows","10.0","https://app.prolific.com/","en-US,en;q=0.5","576704bffdff7a0001c12890","67949641171f97c04e14fb34","67951a42efdeead586cba6db","","null","<img    src='G_1.jpg' height='90'> <img    src='G_5.jpg' height='90'> <img     src='G_7.jpg' height='90'> <img     src='G_6.jpg' height='90'> <img     src='G_2.jpg' height='90'> <img src='G_8.jpg' height='90'> <img src='G_4.jpg' height='90'> <img src='G_3.jpg' height='90'>","null","Animation1",""
"","","","","","html-keyboard-response","107","94371","0.0-83.0","43","1","2025-01-25 17:08:04","af8d355d56820e421d246a7037deb6e6","45.31.138.6","Mozilla/5.0 (Windows NT 10.0; Win64; x64; rv:134.0) Gecko/20100101 Firefox/134.0","","Firefox","134.0","Windows","10.0","https://app.prolific.com/","en-US,en;q=0.5","576704bffdff7a0001c12890","67949641171f97c04e14fb34","67951a42efdeead586cba6db","","null","<img id='selected'    src='G_1.jpg' height='90'> <img    src='G_5.jpg' height='90'> <img     src='G_7.jpg' height='90'> <img     src='G_6.jpg' height='90'> <img     src='G_2.jpg' height='90'> <img src='G_8.jpg' height='90'> <img src='G_4.jpg' height='90'> <img src='G_3.jpg' height='90'>","null","Animation1",""
"","","","","","html-keyboard-response","108","94880","0.0-84.0","43","1","2025-01-25 17:08:04","af8d355d56820e421d246a7037deb6e6","45.31.138.6","Mozilla/5.0 (Windows NT 10.0; Win64; x64; rv:134.0) Gecko/20100101 Firefox/134.0","","Firefox","134.0","Windows","10.0","https://app.prolific.com/","en-US,en;q=0.5","576704bffdff7a0001c12890","67949641171f97c04e14fb34","67951a42efdeead586cba6db","","null","<img id='selected'    src='G_1.jpg' height='90'> <img id='selected'    src='G_5.jpg' height='90'> <img     src='G_7.jpg' height='90'> <img     src='G_6.jpg' height='90'> <img     src='G_2.jpg' height='90'> <img src='G_8.jpg' height='90'> <img src='G_4.jpg' height='90'> <img src='G_3.jpg' height='90'>","null","Animation1",""
"","","","","","html-keyboard-response","109","95389","0.0-85.0","43","1","2025-01-25 17:08:04","af8d355d56820e421d246a7037deb6e6","45.31.138.6","Mozilla/5.0 (Windows NT 10.0; Win64; x64; rv:134.0) Gecko/20100101 Firefox/134.0","","Firefox","134.0","Windows","10.0","https://app.prolific.com/","en-US,en;q=0.5","576704bffdff7a0001c12890","67949641171f97c04e14fb34","67951a42efdeead586cba6db","","null","<img id='selected'    src='G_1.jpg' height='90'> <img id='selected'    src='G_5.jpg' height='90'> <img     src='G_7.jpg' height='90'> <img     src='G_6.jpg' height='90'> <img     src='G_2.jpg' height='90'> <img src='G_8.jpg' height='90'> <img src='G_4.jpg' height='90'> <img src='G_3.jpg' height='90'>","null","Animation1",""
"","","","","","html-keyboard-response","110","95700","0.0-86.0","43","1","2025-01-25 17:08:04","af8d355d56820e421d246a7037deb6e6","45.31.138.6","Mozilla/5.0 (Windows NT 10.0; Win64; x64; rv:134.0) Gecko/20100101 Firefox/134.0","","Firefox","134.0","Windows","10.0","https://app.prolific.com/","en-US,en;q=0.5","576704bffdff7a0001c12890","67949641171f97c04e14fb34","67951a42efdeead586cba6db","","null","<img     src='G_1.jpg' height='90'> <img     src='G_5.jpg' height='90'> <img     src='G_7.jpg' height='90'> <img     src='G_6.jpg' height='90'> <img     src='G_2.jpg' height='90'> <img src='G_8.jpg' height='90'> <img src='G_4.jpg' height='90'> <img src='G_3.jpg' height='90'>","null","Animation1",""
"","","","","","html-keyboard-response","111","96208","0.0-87.0","43","1","2025-01-25 17:08:04","af8d355d56820e421d246a7037deb6e6","45.31.138.6","Mozilla/5.0 (Windows NT 10.0; Win64; x64; rv:134.0) Gecko/20100101 Firefox/134.0","","Firefox","134.0","Windows","10.0","https://app.prolific.com/","en-US,en;q=0.5","576704bffdff7a0001c12890","67949641171f97c04e14fb34","67951a42efdeead586cba6db","","null","<img     src='G_1.jpg' height='90'> <img     src='G_5.jpg' height='90'> <img     src='G_7.jpg' height='90'> <img     src='G_6.jpg' height='90'> <img id='selected'     src='G_2.jpg' height='90'> <img src='G_8.jpg' height='90'> <img src='G_4.jpg' height='90'> <img src='G_3.jpg' height='90'>","null","Animation1",""
"","","","","","html-keyboard-response","112","96716","0.0-88.0","43","1","2025-01-25 17:08:04","af8d355d56820e421d246a7037deb6e6","45.31.138.6","Mozilla/5.0 (Windows NT 10.0; Win64; x64; rv:134.0) Gecko/20100101 Firefox/134.0","","Firefox","134.0","Windows","10.0","https://app.prolific.com/","en-US,en;q=0.5","576704bffdff7a0001c12890","67949641171f97c04e14fb34","67951a42efdeead586cba6db","","null","<img     src='G_1.jpg' height='90'> <img     src='G_5.jpg' height='90'> <img     src='G_7.jpg' height='90'> <img     src='G_6.jpg' height='90'> <img id='selected'     src='G_2.jpg' height='90'> <img id='selected' src='G_8.jpg' height='90'> <img src='G_4.jpg' height='90'> <img src='G_3.jpg' height='90'>","null","Animation1",""
"","","","","","html-keyboard-response","113","97225","0.0-89.0","43","1","2025-01-25 17:08:04","af8d355d56820e421d246a7037deb6e6","45.31.138.6","Mozilla/5.0 (Windows NT 10.0; Win64; x64; rv:134.0) Gecko/20100101 Firefox/134.0","","Firefox","134.0","Windows","10.0","https://app.prolific.com/","en-US,en;q=0.5","576704bffdff7a0001c12890","67949641171f97c04e14fb34","67951a42efdeead586cba6db","","null","<img     src='G_1.jpg' height='90'> <img     src='G_5.jpg' height='90'> <img     src='G_7.jpg' height='90'> <img     src='G_6.jpg' height='90'> <img id='swapped' src='G_8.jpg' height='90'> <img id='swapped'     src='G_2.jpg' height='90'> <img src='G_4.jpg' height='90'> <img src='G_3.jpg' height='90'>","null","Animation1",""
"","","","","","html-keyboard-response","114","97535","0.0-90.0","43","1","2025-01-25 17:08:04","af8d355d56820e421d246a7037deb6e6","45.31.138.6","Mozilla/5.0 (Windows NT 10.0; Win64; x64; rv:134.0) Gecko/20100101 Firefox/134.0","","Firefox","134.0","Windows","10.0","https://app.prolific.com/","en-US,en;q=0.5","576704bffdff7a0001c12890","67949641171f97c04e14fb34","67951a42efdeead586cba6db","","null","<img     src='G_1.jpg' height='90'> <img     src='G_5.jpg' height='90'> <img     src='G_7.jpg' height='90'> <img     src='G_6.jpg' height='90'> <img  src='G_8.jpg' height='90'> <img      src='G_2.jpg' height='90'> <img src='G_4.jpg' height='90'> <img src='G_3.jpg' height='90'>","null","Animation1",""
"","","","","","html-keyboard-response","115","98044","0.0-91.0","43","1","2025-01-25 17:08:04","af8d355d56820e421d246a7037deb6e6","45.31.138.6","Mozilla/5.0 (Windows NT 10.0; Win64; x64; rv:134.0) Gecko/20100101 Firefox/134.0","","Firefox","134.0","Windows","10.0","https://app.prolific.com/","en-US,en;q=0.5","576704bffdff7a0001c12890","67949641171f97c04e14fb34","67951a42efdeead586cba6db","","null","<img     src='G_1.jpg' height='90'> <img     src='G_5.jpg' height='90'> <img     src='G_7.jpg' height='90'> <img id='selected'     src='G_6.jpg' height='90'> <img  src='G_8.jpg' height='90'> <img      src='G_2.jpg' height='90'> <img src='G_4.jpg' height='90'> <img src='G_3.jpg' height='90'>","null","Animation1",""
"","","","","","html-keyboard-response","116","98555","0.0-92.0","43","1","2025-01-25 17:08:04","af8d355d56820e421d246a7037deb6e6","45.31.138.6","Mozilla/5.0 (Windows NT 10.0; Win64; x64; rv:134.0) Gecko/20100101 Firefox/134.0","","Firefox","134.0","Windows","10.0","https://app.prolific.com/","en-US,en;q=0.5","576704bffdff7a0001c12890","67949641171f97c04e14fb34","67951a42efdeead586cba6db","","null","<img     src='G_1.jpg' height='90'> <img     src='G_5.jpg' height='90'> <img     src='G_7.jpg' height='90'> <img id='selected'     src='G_6.jpg' height='90'> <img id='selected'  src='G_8.jpg' height='90'> <img      src='G_2.jpg' height='90'> <img src='G_4.jpg' height='90'> <img src='G_3.jpg' height='90'>","null","Animation1",""
"","","","","","html-keyboard-response","117","99065","0.0-93.0","43","1","2025-01-25 17:08:04","af8d355d56820e421d246a7037deb6e6","45.31.138.6","Mozilla/5.0 (Windows NT 10.0; Win64; x64; rv:134.0) Gecko/20100101 Firefox/134.0","","Firefox","134.0","Windows","10.0","https://app.prolific.com/","en-US,en;q=0.5","576704bffdff7a0001c12890","67949641171f97c04e14fb34","67951a42efdeead586cba6db","","null","<img     src='G_1.jpg' height='90'> <img     src='G_5.jpg' height='90'> <img     src='G_7.jpg' height='90'> <img id='selected'     src='G_6.jpg' height='90'> <img id='selected'  src='G_8.jpg' height='90'> <img      src='G_2.jpg' height='90'> <img src='G_4.jpg' height='90'> <img src='G_3.jpg' height='90'>","null","Animation1",""
"","","","","","html-keyboard-response","118","99373","0.0-94.0","43","1","2025-01-25 17:08:04","af8d355d56820e421d246a7037deb6e6","45.31.138.6","Mozilla/5.0 (Windows NT 10.0; Win64; x64; rv:134.0) Gecko/20100101 Firefox/134.0","","Firefox","134.0","Windows","10.0","https://app.prolific.com/","en-US,en;q=0.5","576704bffdff7a0001c12890","67949641171f97c04e14fb34","67951a42efdeead586cba6db","","null","<img     src='G_1.jpg' height='90'> <img     src='G_5.jpg' height='90'> <img     src='G_7.jpg' height='90'> <img      src='G_6.jpg' height='90'> <img   src='G_8.jpg' height='90'> <img      src='G_2.jpg' height='90'> <img src='G_4.jpg' height='90'> <img src='G_3.jpg' height='90'>","null","Animation1",""
"","","","","","html-keyboard-response","119","99883","0.0-95.0","43","1","2025-01-25 17:08:04","af8d355d56820e421d246a7037deb6e6","45.31.138.6","Mozilla/5.0 (Windows NT 10.0; Win64; x64; rv:134.0) Gecko/20100101 Firefox/134.0","","Firefox","134.0","Windows","10.0","https://app.prolific.com/","en-US,en;q=0.5","576704bffdff7a0001c12890","67949641171f97c04e14fb34","67951a42efdeead586cba6db","","null","<img     src='G_1.jpg' height='90'> <img     src='G_5.jpg' height='90'> <img     src='G_7.jpg' height='90'> <img      src='G_6.jpg' height='90'> <img   src='G_8.jpg' height='90'> <img id='selected'      src='G_2.jpg' height='90'> <img src='G_4.jpg' height='90'> <img src='G_3.jpg' height='90'>","null","Animation1",""
"","","","","","html-keyboard-response","120","100393","0.0-96.0","43","1","2025-01-25 17:08:04","af8d355d56820e421d246a7037deb6e6","45.31.138.6","Mozilla/5.0 (Windows NT 10.0; Win64; x64; rv:134.0) Gecko/20100101 Firefox/134.0","","Firefox","134.0","Windows","10.0","https://app.prolific.com/","en-US,en;q=0.5","576704bffdff7a0001c12890","67949641171f97c04e14fb34","67951a42efdeead586cba6db","","null","<img     src='G_1.jpg' height='90'> <img     src='G_5.jpg' height='90'> <img     src='G_7.jpg' height='90'> <img      src='G_6.jpg' height='90'> <img   src='G_8.jpg' height='90'> <img id='selected'      src='G_2.jpg' height='90'> <img id='selected' src='G_4.jpg' height='90'> <img src='G_3.jpg' height='90'>","null","Animation1",""
"","","","","","html-keyboard-response","121","100902","0.0-97.0","43","1","2025-01-25 17:08:04","af8d355d56820e421d246a7037deb6e6","45.31.138.6","Mozilla/5.0 (Windows NT 10.0; Win64; x64; rv:134.0) Gecko/20100101 Firefox/134.0","","Firefox","134.0","Windows","10.0","https://app.prolific.com/","en-US,en;q=0.5","576704bffdff7a0001c12890","67949641171f97c04e14fb34","67951a42efdeead586cba6db","","null","<img     src='G_1.jpg' height='90'> <img     src='G_5.jpg' height='90'> <img     src='G_7.jpg' height='90'> <img      src='G_6.jpg' height='90'> <img   src='G_8.jpg' height='90'> <img id='selected'      src='G_2.jpg' height='90'> <img id='selected' src='G_4.jpg' height='90'> <img src='G_3.jpg' height='90'>","null","Animation1",""
"","","","","","html-keyboard-response","122","101211","0.0-98.0","43","1","2025-01-25 17:08:04","af8d355d56820e421d246a7037deb6e6","45.31.138.6","Mozilla/5.0 (Windows NT 10.0; Win64; x64; rv:134.0) Gecko/20100101 Firefox/134.0","","Firefox","134.0","Windows","10.0","https://app.prolific.com/","en-US,en;q=0.5","576704bffdff7a0001c12890","67949641171f97c04e14fb34","67951a42efdeead586cba6db","","null","<img     src='G_1.jpg' height='90'> <img     src='G_5.jpg' height='90'> <img     src='G_7.jpg' height='90'> <img      src='G_6.jpg' height='90'> <img   src='G_8.jpg' height='90'> <img       src='G_2.jpg' height='90'> <img  src='G_4.jpg' height='90'> <img src='G_3.jpg' height='90'>","null","Animation1",""
"","","","","","html-keyboard-response","123","101720","0.0-99.0","43","1","2025-01-25 17:08:04","af8d355d56820e421d246a7037deb6e6","45.31.138.6","Mozilla/5.0 (Windows NT 10.0; Win64; x64; rv:134.0) Gecko/20100101 Firefox/134.0","","Firefox","134.0","Windows","10.0","https://app.prolific.com/","en-US,en;q=0.5","576704bffdff7a0001c12890","67949641171f97c04e14fb34","67951a42efdeead586cba6db","","null","<img     src='G_1.jpg' height='90'> <img     src='G_5.jpg' height='90'> <img     src='G_7.jpg' height='90'> <img      src='G_6.jpg' height='90'> <img   src='G_8.jpg' height='90'> <img       src='G_2.jpg' height='90'> <img id='selected'  src='G_4.jpg' height='90'> <img src='G_3.jpg' height='90'>","null","Animation1",""
"","","","","","html-keyboard-response","124","102230","0.0-100.0","43","1","2025-01-25 17:08:04","af8d355d56820e421d246a7037deb6e6","45.31.138.6","Mozilla/5.0 (Windows NT 10.0; Win64; x64; rv:134.0) Gecko/20100101 Firefox/134.0","","Firefox","134.0","Windows","10.0","https://app.prolific.com/","en-US,en;q=0.5","576704bffdff7a0001c12890","67949641171f97c04e14fb34","67951a42efdeead586cba6db","","null","<img     src='G_1.jpg' height='90'> <img     src='G_5.jpg' height='90'> <img     src='G_7.jpg' height='90'> <img      src='G_6.jpg' height='90'> <img   src='G_8.jpg' height='90'> <img       src='G_2.jpg' height='90'> <img id='selected'  src='G_4.jpg' height='90'> <img id='selected' src='G_3.jpg' height='90'>","null","Animation1",""
"","","","","","html-keyboard-response","125","102738","0.0-101.0","43","1","2025-01-25 17:08:04","af8d355d56820e421d246a7037deb6e6","45.31.138.6","Mozilla/5.0 (Windows NT 10.0; Win64; x64; rv:134.0) Gecko/20100101 Firefox/134.0","","Firefox","134.0","Windows","10.0","https://app.prolific.com/","en-US,en;q=0.5","576704bffdff7a0001c12890","67949641171f97c04e14fb34","67951a42efdeead586cba6db","","null","<img     src='G_1.jpg' height='90'> <img     src='G_5.jpg' height='90'> <img     src='G_7.jpg' height='90'> <img      src='G_6.jpg' height='90'> <img   src='G_8.jpg' height='90'> <img       src='G_2.jpg' height='90'> <img id='swapped' src='G_3.jpg' height='90'> <img id='swapped'  src='G_4.jpg' height='90'>","null","Animation1",""
"","","","","","html-keyboard-response","126","103046","0.0-102.0","43","1","2025-01-25 17:08:04","af8d355d56820e421d246a7037deb6e6","45.31.138.6","Mozilla/5.0 (Windows NT 10.0; Win64; x64; rv:134.0) Gecko/20100101 Firefox/134.0","","Firefox","134.0","Windows","10.0","https://app.prolific.com/","en-US,en;q=0.5","576704bffdff7a0001c12890","67949641171f97c04e14fb34","67951a42efdeead586cba6db","","null","<img     src='G_1.jpg' height='90'> <img     src='G_5.jpg' height='90'> <img     src='G_7.jpg' height='90'> <img      src='G_6.jpg' height='90'> <img   src='G_8.jpg' height='90'> <img       src='G_2.jpg' height='90'> <img  src='G_3.jpg' height='90'> <img   src='G_4.jpg' height='90'>","null","Animation1",""
"","","","","","html-keyboard-response","127","103558","0.0-103.0","43","1","2025-01-25 17:08:04","af8d355d56820e421d246a7037deb6e6","45.31.138.6","Mozilla/5.0 (Windows NT 10.0; Win64; x64; rv:134.0) Gecko/20100101 Firefox/134.0","","Firefox","134.0","Windows","10.0","https://app.prolific.com/","en-US,en;q=0.5","576704bffdff7a0001c12890","67949641171f97c04e14fb34","67951a42efdeead586cba6db","","null","<img     src='G_1.jpg' height='90'> <img     src='G_5.jpg' height='90'> <img     src='G_7.jpg' height='90'> <img      src='G_6.jpg' height='90'> <img   src='G_8.jpg' height='90'> <img id='selected'       src='G_2.jpg' height='90'> <img  src='G_3.jpg' height='90'> <img   src='G_4.jpg' height='90'>","null","Animation1",""
"","","","","","html-keyboard-response","128","104066","0.0-104.0","43","1","2025-01-25 17:08:04","af8d355d56820e421d246a7037deb6e6","45.31.138.6","Mozilla/5.0 (Windows NT 10.0; Win64; x64; rv:134.0) Gecko/20100101 Firefox/134.0","","Firefox","134.0","Windows","10.0","https://app.prolific.com/","en-US,en;q=0.5","576704bffdff7a0001c12890","67949641171f97c04e14fb34","67951a42efdeead586cba6db","","null","<img     src='G_1.jpg' height='90'> <img     src='G_5.jpg' height='90'> <img     src='G_7.jpg' height='90'> <img      src='G_6.jpg' height='90'> <img   src='G_8.jpg' height='90'> <img id='selected'       src='G_2.jpg' height='90'> <img id='selected'  src='G_3.jpg' height='90'> <img   src='G_4.jpg' height='90'>","null","Animation1",""
"","","","","","html-keyboard-response","129","104576","0.0-105.0","43","1","2025-01-25 17:08:04","af8d355d56820e421d246a7037deb6e6","45.31.138.6","Mozilla/5.0 (Windows NT 10.0; Win64; x64; rv:134.0) Gecko/20100101 Firefox/134.0","","Firefox","134.0","Windows","10.0","https://app.prolific.com/","en-US,en;q=0.5","576704bffdff7a0001c12890","67949641171f97c04e14fb34","67951a42efdeead586cba6db","","null","<img     src='G_1.jpg' height='90'> <img     src='G_5.jpg' height='90'> <img     src='G_7.jpg' height='90'> <img      src='G_6.jpg' height='90'> <img   src='G_8.jpg' height='90'> <img id='selected'       src='G_2.jpg' height='90'> <img id='selected'  src='G_3.jpg' height='90'> <img   src='G_4.jpg' height='90'>","null","Animation1",""
"","","","","","html-keyboard-response","130","104883","0.0-106.0","43","1","2025-01-25 17:08:04","af8d355d56820e421d246a7037deb6e6","45.31.138.6","Mozilla/5.0 (Windows NT 10.0; Win64; x64; rv:134.0) Gecko/20100101 Firefox/134.0","","Firefox","134.0","Windows","10.0","https://app.prolific.com/","en-US,en;q=0.5","576704bffdff7a0001c12890","67949641171f97c04e14fb34","67951a42efdeead586cba6db","","null","<img     src='G_1.jpg' height='90'> <img     src='G_5.jpg' height='90'> <img     src='G_7.jpg' height='90'> <img      src='G_6.jpg' height='90'> <img   src='G_8.jpg' height='90'> <img        src='G_2.jpg' height='90'> <img   src='G_3.jpg' height='90'> <img   src='G_4.jpg' height='90'>","null","Animation1",""
"","","","","","html-keyboard-response","131","107607","0.0-107.0","43","1","2025-01-25 17:08:04","af8d355d56820e421d246a7037deb6e6","45.31.138.6","Mozilla/5.0 (Windows NT 10.0; Win64; x64; rv:134.0) Gecko/20100101 Firefox/134.0","","Firefox","134.0","Windows","10.0","https://app.prolific.com/","en-US,en;q=0.5","576704bffdff7a0001c12890","67949641171f97c04e14fb34","67951a42efdeead586cba6db","","2721","[""Did you notice any patterns? <br><br>Press Enter to watch that example again and follow the steps of Omgne Sort.""]","enter","",""
"","","","","","html-button-response","132","108011","0.0-108.0","43","1","2025-01-25 17:08:04","af8d355d56820e421d246a7037deb6e6","45.31.138.6","Mozilla/5.0 (Windows NT 10.0; Win64; x64; rv:134.0) Gecko/20100101 Firefox/134.0","","Firefox","134.0","Windows","10.0","https://app.prolific.com/","en-US,en;q=0.5","576704bffdff7a0001c12890","67949641171f97c04e14fb34","67951a42efdeead586cba6db","","null","<img id='selected' src='G_6.jpg' height='90'> <img src='G_2.jpg' height='90'> <img src='G_7.jpg' height='90'> <img src='G_1.jpg' height='90'> <img src='G_5.jpg' height='90'> <img src='G_8.jpg' height='90'> <img src='G_4.jpg' height='90'> <img src='G_3.jpg' height='90'>","null","Learning example 1",""
"","","","","","html-button-response","133","108320","0.0-109.0","43","1","2025-01-25 17:08:04","af8d355d56820e421d246a7037deb6e6","45.31.138.6","Mozilla/5.0 (Windows NT 10.0; Win64; x64; rv:134.0) Gecko/20100101 Firefox/134.0","","Firefox","134.0","Windows","10.0","https://app.prolific.com/","en-US,en;q=0.5","576704bffdff7a0001c12890","67949641171f97c04e14fb34","67951a42efdeead586cba6db","","null","<img id='selected' src='G_6.jpg' height='90'> <img id='selected' src='G_2.jpg' height='90'> <img src='G_7.jpg' height='90'> <img src='G_1.jpg' height='90'> <img src='G_5.jpg' height='90'> <img src='G_8.jpg' height='90'> <img src='G_4.jpg' height='90'> <img src='G_3.jpg' height='90'>","null","Learning example 1",""
"","","","","","html-button-response","134","108627","0.0-110.0","43","1","2025-01-25 17:08:04","af8d355d56820e421d246a7037deb6e6","45.31.138.6","Mozilla/5.0 (Windows NT 10.0; Win64; x64; rv:134.0) Gecko/20100101 Firefox/134.0","","Firefox","134.0","Windows","10.0","https://app.prolific.com/","en-US,en;q=0.5","576704bffdff7a0001c12890","67949641171f97c04e14fb34","67951a42efdeead586cba6db","","null","<img id='selected' src='G_6.jpg' height='90'> <img id='selected' src='G_2.jpg' height='90'> <img src='G_7.jpg' height='90'> <img src='G_1.jpg' height='90'> <img src='G_5.jpg' height='90'> <img src='G_8.jpg' height='90'> <img src='G_4.jpg' height='90'> <img src='G_3.jpg' height='90'>","null","Learning example 1",""
"","","","","","html-button-response","135","109138","0.0-111.0-0.0-0.0","43","1","2025-01-25 17:08:04","af8d355d56820e421d246a7037deb6e6","45.31.138.6","Mozilla/5.0 (Windows NT 10.0; Win64; x64; rv:134.0) Gecko/20100101 Firefox/134.0","","Firefox","134.0","Windows","10.0","https://app.prolific.com/","en-US,en;q=0.5","576704bffdff7a0001c12890","67949641171f97c04e14fb34","67951a42efdeead586cba6db","","509","<img id='selected' src='G_6.jpg' height='90'> <img id='selected' src='G_2.jpg' height='90'> <img src='G_7.jpg' height='90'> <img src='G_1.jpg' height='90'> <img src='G_5.jpg' height='90'> <img src='G_8.jpg' height='90'> <img src='G_4.jpg' height='90'> <img src='G_3.jpg' height='90'>","0","Learning example 1",""
"","","","","","html-button-response","136","109450","0.0-111.1-0.1-0.1","43","1","2025-01-25 17:08:04","af8d355d56820e421d246a7037deb6e6","45.31.138.6","Mozilla/5.0 (Windows NT 10.0; Win64; x64; rv:134.0) Gecko/20100101 Firefox/134.0","","Firefox","134.0","Windows","10.0","https://app.prolific.com/","en-US,en;q=0.5","576704bffdff7a0001c12890","67949641171f97c04e14fb34","67951a42efdeead586cba6db","","308","<img id='selected' src='G_6.jpg' height='90'> <img id='selected' src='G_2.jpg' height='90'> <img src='G_7.jpg' height='90'> <img src='G_1.jpg' height='90'> <img src='G_5.jpg' height='90'> <img src='G_8.jpg' height='90'> <img src='G_4.jpg' height='90'> <img src='G_3.jpg' height='90'>","1","Learning example 1",""
"","","","","","html-button-response","137","109658","0.0-112.0","43","1","2025-01-25 17:08:04","af8d355d56820e421d246a7037deb6e6","45.31.138.6","Mozilla/5.0 (Windows NT 10.0; Win64; x64; rv:134.0) Gecko/20100101 Firefox/134.0","","Firefox","134.0","Windows","10.0","https://app.prolific.com/","en-US,en;q=0.5","576704bffdff7a0001c12890","67949641171f97c04e14fb34","67951a42efdeead586cba6db","","null","<img  src='G_6.jpg' height='90'> <img  src='G_2.jpg' height='90'> <img src='G_7.jpg' height='90'> <img src='G_1.jpg' height='90'> <img src='G_5.jpg' height='90'> <img src='G_8.jpg' height='90'> <img src='G_4.jpg' height='90'> <img src='G_3.jpg' height='90'>","null","Learning example 1",""
"","","","","","html-button-response","138","110075","0.0-113.0","43","1","2025-01-25 17:08:04","af8d355d56820e421d246a7037deb6e6","45.31.138.6","Mozilla/5.0 (Windows NT 10.0; Win64; x64; rv:134.0) Gecko/20100101 Firefox/134.0","","Firefox","134.0","Windows","10.0","https://app.prolific.com/","en-US,en;q=0.5","576704bffdff7a0001c12890","67949641171f97c04e14fb34","67951a42efdeead586cba6db","","null","<img  src='G_6.jpg' height='90'> <img id='selected'  src='G_2.jpg' height='90'> <img src='G_7.jpg' height='90'> <img src='G_1.jpg' height='90'> <img src='G_5.jpg' height='90'> <img src='G_8.jpg' height='90'> <img src='G_4.jpg' height='90'> <img src='G_3.jpg' height='90'>","null","Learning example 1",""
"","","","","","html-button-response","139","110383","0.0-114.0","43","1","2025-01-25 17:08:04","af8d355d56820e421d246a7037deb6e6","45.31.138.6","Mozilla/5.0 (Windows NT 10.0; Win64; x64; rv:134.0) Gecko/20100101 Firefox/134.0","","Firefox","134.0","Windows","10.0","https://app.prolific.com/","en-US,en;q=0.5","576704bffdff7a0001c12890","67949641171f97c04e14fb34","67951a42efdeead586cba6db","","null","<img  src='G_6.jpg' height='90'> <img id='selected'  src='G_2.jpg' height='90'> <img id='selected' src='G_7.jpg' height='90'> <img src='G_1.jpg' height='90'> <img src='G_5.jpg' height='90'> <img src='G_8.jpg' height='90'> <img src='G_4.jpg' height='90'> <img src='G_3.jpg' height='90'>","null","Learning example 1",""
"","","","","","html-button-response","140","110503","0.0-115.0","43","1","2025-01-25 17:08:04","af8d355d56820e421d246a7037deb6e6","45.31.138.6","Mozilla/5.0 (Windows NT 10.0; Win64; x64; rv:134.0) Gecko/20100101 Firefox/134.0","","Firefox","134.0","Windows","10.0","https://app.prolific.com/","en-US,en;q=0.5","576704bffdff7a0001c12890","67949641171f97c04e14fb34","67951a42efdeead586cba6db","","118","<img  src='G_6.jpg' height='90'> <img id='swapped' src='G_7.jpg' height='90'> <img id='swapped'  src='G_2.jpg' height='90'> <img src='G_1.jpg' height='90'> <img src='G_5.jpg' height='90'> <img src='G_8.jpg' height='90'> <img src='G_4.jpg' height='90'> <img src='G_3.jpg' height='90'>","1","Learning example 1",""
"","","","","","html-button-response","141","110800","0.0-116.0-0.0-0.0","43","1","2025-01-25 17:08:04","af8d355d56820e421d246a7037deb6e6","45.31.138.6","Mozilla/5.0 (Windows NT 10.0; Win64; x64; rv:134.0) Gecko/20100101 Firefox/134.0","","Firefox","134.0","Windows","10.0","https://app.prolific.com/","en-US,en;q=0.5","576704bffdff7a0001c12890","67949641171f97c04e14fb34","67951a42efdeead586cba6db","","294","<img  src='G_6.jpg' height='90'> <img id='swapped' src='G_7.jpg' height='90'> <img id='swapped'  src='G_2.jpg' height='90'> <img src='G_1.jpg' height='90'> <img src='G_5.jpg' height='90'> <img src='G_8.jpg' height='90'> <img src='G_4.jpg' height='90'> <img src='G_3.jpg' height='90'>","2","Learning example 1",""
"","","","","","html-button-response","142","111015","0.0-117.0","43","1","2025-01-25 17:08:04","af8d355d56820e421d246a7037deb6e6","45.31.138.6","Mozilla/5.0 (Windows NT 10.0; Win64; x64; rv:134.0) Gecko/20100101 Firefox/134.0","","Firefox","134.0","Windows","10.0","https://app.prolific.com/","en-US,en;q=0.5","576704bffdff7a0001c12890","67949641171f97c04e14fb34","67951a42efdeead586cba6db","","null","<img  src='G_6.jpg' height='90'> <img  src='G_7.jpg' height='90'> <img   src='G_2.jpg' height='90'> <img src='G_1.jpg' height='90'> <img src='G_5.jpg' height='90'> <img src='G_8.jpg' height='90'> <img src='G_4.jpg' height='90'> <img src='G_3.jpg' height='90'>","null","Learning example 1",""
"","","","","","html-button-response","143","111429","0.0-118.0","43","1","2025-01-25 17:08:04","af8d355d56820e421d246a7037deb6e6","45.31.138.6","Mozilla/5.0 (Windows NT 10.0; Win64; x64; rv:134.0) Gecko/20100101 Firefox/134.0","","Firefox","134.0","Windows","10.0","https://app.prolific.com/","en-US,en;q=0.5","576704bffdff7a0001c12890","67949641171f97c04e14fb34","67951a42efdeead586cba6db","","null","<img id='selected'  src='G_6.jpg' height='90'> <img  src='G_7.jpg' height='90'> <img   src='G_2.jpg' height='90'> <img src='G_1.jpg' height='90'> <img src='G_5.jpg' height='90'> <img src='G_8.jpg' height='90'> <img src='G_4.jpg' height='90'> <img src='G_3.jpg' height='90'>","null","Learning example 1",""
"","","","","","html-button-response","144","111736","0.0-119.0","43","1","2025-01-25 17:08:04","af8d355d56820e421d246a7037deb6e6","45.31.138.6","Mozilla/5.0 (Windows NT 10.0; Win64; x64; rv:134.0) Gecko/20100101 Firefox/134.0","","Firefox","134.0","Windows","10.0","https://app.prolific.com/","en-US,en;q=0.5","576704bffdff7a0001c12890","67949641171f97c04e14fb34","67951a42efdeead586cba6db","","null","<img id='selected'  src='G_6.jpg' height='90'> <img id='selected'  src='G_7.jpg' height='90'> <img   src='G_2.jpg' height='90'> <img src='G_1.jpg' height='90'> <img src='G_5.jpg' height='90'> <img src='G_8.jpg' height='90'> <img src='G_4.jpg' height='90'> <img src='G_3.jpg' height='90'>","null","Learning example 1",""
"","","","","","html-button-response","145","112046","0.0-120.0","43","1","2025-01-25 17:08:04","af8d355d56820e421d246a7037deb6e6","45.31.138.6","Mozilla/5.0 (Windows NT 10.0; Win64; x64; rv:134.0) Gecko/20100101 Firefox/134.0","","Firefox","134.0","Windows","10.0","https://app.prolific.com/","en-US,en;q=0.5","576704bffdff7a0001c12890","67949641171f97c04e14fb34","67951a42efdeead586cba6db","","null","<img id='swapped'  src='G_7.jpg' height='90'> <img id='swapped'  src='G_6.jpg' height='90'> <img   src='G_2.jpg' height='90'> <img src='G_1.jpg' height='90'> <img src='G_5.jpg' height='90'> <img src='G_8.jpg' height='90'> <img src='G_4.jpg' height='90'> <img src='G_3.jpg' height='90'>","null","Learning example 1",""
"","","","","","html-button-response","146","112370","0.0-121.0-0.0-0.0","43","1","2025-01-25 17:08:04","af8d355d56820e421d246a7037deb6e6","45.31.138.6","Mozilla/5.0 (Windows NT 10.0; Win64; x64; rv:134.0) Gecko/20100101 Firefox/134.0","","Firefox","134.0","Windows","10.0","https://app.prolific.com/","en-US,en;q=0.5","576704bffdff7a0001c12890","67949641171f97c04e14fb34","67951a42efdeead586cba6db","","322","<img id='swapped'  src='G_7.jpg' height='90'> <img id='swapped'  src='G_6.jpg' height='90'> <img   src='G_2.jpg' height='90'> <img src='G_1.jpg' height='90'> <img src='G_5.jpg' height='90'> <img src='G_8.jpg' height='90'> <img src='G_4.jpg' height='90'> <img src='G_3.jpg' height='90'>","1","Learning example 1",""
"","","","","","html-button-response","147","112697","0.0-121.1-0.1-0.1","43","1","2025-01-25 17:08:04","af8d355d56820e421d246a7037deb6e6","45.31.138.6","Mozilla/5.0 (Windows NT 10.0; Win64; x64; rv:134.0) Gecko/20100101 Firefox/134.0","","Firefox","134.0","Windows","10.0","https://app.prolific.com/","en-US,en;q=0.5","576704bffdff7a0001c12890","67949641171f97c04e14fb34","67951a42efdeead586cba6db","","324","<img id='swapped'  src='G_7.jpg' height='90'> <img id='swapped'  src='G_6.jpg' height='90'> <img   src='G_2.jpg' height='90'> <img src='G_1.jpg' height='90'> <img src='G_5.jpg' height='90'> <img src='G_8.jpg' height='90'> <img src='G_4.jpg' height='90'> <img src='G_3.jpg' height='90'>","0","Learning example 1",""
"","","","","","html-button-response","148","112908","0.0-122.0","43","1","2025-01-25 17:08:04","af8d355d56820e421d246a7037deb6e6","45.31.138.6","Mozilla/5.0 (Windows NT 10.0; Win64; x64; rv:134.0) Gecko/20100101 Firefox/134.0","","Firefox","134.0","Windows","10.0","https://app.prolific.com/","en-US,en;q=0.5","576704bffdff7a0001c12890","67949641171f97c04e14fb34","67951a42efdeead586cba6db","","null","<img   src='G_7.jpg' height='90'> <img   src='G_6.jpg' height='90'> <img   src='G_2.jpg' height='90'> <img src='G_1.jpg' height='90'> <img src='G_5.jpg' height='90'> <img src='G_8.jpg' height='90'> <img src='G_4.jpg' height='90'> <img src='G_3.jpg' height='90'>","null","Learning example 1",""
"","","","","","html-button-response","149","113323","0.0-123.0","43","1","2025-01-25 17:08:04","af8d355d56820e421d246a7037deb6e6","45.31.138.6","Mozilla/5.0 (Windows NT 10.0; Win64; x64; rv:134.0) Gecko/20100101 Firefox/134.0","","Firefox","134.0","Windows","10.0","https://app.prolific.com/","en-US,en;q=0.5","576704bffdff7a0001c12890","67949641171f97c04e14fb34","67951a42efdeead586cba6db","","null","<img   src='G_7.jpg' height='90'> <img   src='G_6.jpg' height='90'> <img id='selected'   src='G_2.jpg' height='90'> <img src='G_1.jpg' height='90'> <img src='G_5.jpg' height='90'> <img src='G_8.jpg' height='90'> <img src='G_4.jpg' height='90'> <img src='G_3.jpg' height='90'>","null","Learning example 1",""
"","","","","","html-button-response","150","113632","0.0-124.0","43","1","2025-01-25 17:08:04","af8d355d56820e421d246a7037deb6e6","45.31.138.6","Mozilla/5.0 (Windows NT 10.0; Win64; x64; rv:134.0) Gecko/20100101 Firefox/134.0","","Firefox","134.0","Windows","10.0","https://app.prolific.com/","en-US,en;q=0.5","576704bffdff7a0001c12890","67949641171f97c04e14fb34","67951a42efdeead586cba6db","","null","<img   src='G_7.jpg' height='90'> <img   src='G_6.jpg' height='90'> <img id='selected'   src='G_2.jpg' height='90'> <img id='selected' src='G_1.jpg' height='90'> <img src='G_5.jpg' height='90'> <img src='G_8.jpg' height='90'> <img src='G_4.jpg' height='90'> <img src='G_3.jpg' height='90'>","null","Learning example 1",""
"","","","","","html-button-response","151","113940","0.0-125.0","43","1","2025-01-25 17:08:04","af8d355d56820e421d246a7037deb6e6","45.31.138.6","Mozilla/5.0 (Windows NT 10.0; Win64; x64; rv:134.0) Gecko/20100101 Firefox/134.0","","Firefox","134.0","Windows","10.0","https://app.prolific.com/","en-US,en;q=0.5","576704bffdff7a0001c12890","67949641171f97c04e14fb34","67951a42efdeead586cba6db","","null","<img   src='G_7.jpg' height='90'> <img   src='G_6.jpg' height='90'> <img id='swapped' src='G_1.jpg' height='90'> <img id='swapped'   src='G_2.jpg' height='90'> <img src='G_5.jpg' height='90'> <img src='G_8.jpg' height='90'> <img src='G_4.jpg' height='90'> <img src='G_3.jpg' height='90'>","null","Learning example 1",""
"","","","","","html-button-response","152","114063","0.0-126.0-0.0-0.0","43","1","2025-01-25 17:08:04","af8d355d56820e421d246a7037deb6e6","45.31.138.6","Mozilla/5.0 (Windows NT 10.0; Win64; x64; rv:134.0) Gecko/20100101 Firefox/134.0","","Firefox","134.0","Windows","10.0","https://app.prolific.com/","en-US,en;q=0.5","576704bffdff7a0001c12890","67949641171f97c04e14fb34","67951a42efdeead586cba6db","","120","<img   src='G_7.jpg' height='90'> <img   src='G_6.jpg' height='90'> <img id='swapped' src='G_1.jpg' height='90'> <img id='swapped'   src='G_2.jpg' height='90'> <img src='G_5.jpg' height='90'> <img src='G_8.jpg' height='90'> <img src='G_4.jpg' height='90'> <img src='G_3.jpg' height='90'>","2","Learning example 1",""
"","","","","","html-button-response","153","114311","0.0-126.1-0.1-0.1","43","1","2025-01-25 17:08:04","af8d355d56820e421d246a7037deb6e6","45.31.138.6","Mozilla/5.0 (Windows NT 10.0; Win64; x64; rv:134.0) Gecko/20100101 Firefox/134.0","","Firefox","134.0","Windows","10.0","https://app.prolific.com/","en-US,en;q=0.5","576704bffdff7a0001c12890","67949641171f97c04e14fb34","67951a42efdeead586cba6db","","246","<img   src='G_7.jpg' height='90'> <img   src='G_6.jpg' height='90'> <img id='swapped' src='G_1.jpg' height='90'> <img id='swapped'   src='G_2.jpg' height='90'> <img src='G_5.jpg' height='90'> <img src='G_8.jpg' height='90'> <img src='G_4.jpg' height='90'> <img src='G_3.jpg' height='90'>","3","Learning example 1",""
"","","","","","html-button-response","154","114526","0.0-127.0","43","1","2025-01-25 17:08:04","af8d355d56820e421d246a7037deb6e6","45.31.138.6","Mozilla/5.0 (Windows NT 10.0; Win64; x64; rv:134.0) Gecko/20100101 Firefox/134.0","","Firefox","134.0","Windows","10.0","https://app.prolific.com/","en-US,en;q=0.5","576704bffdff7a0001c12890","67949641171f97c04e14fb34","67951a42efdeead586cba6db","","null","<img   src='G_7.jpg' height='90'> <img   src='G_6.jpg' height='90'> <img  src='G_1.jpg' height='90'> <img    src='G_2.jpg' height='90'> <img src='G_5.jpg' height='90'> <img src='G_8.jpg' height='90'> <img src='G_4.jpg' height='90'> <img src='G_3.jpg' height='90'>","null","Learning example 1",""
