"success","timeout","failed_images","failed_audio","failed_video","trial_type","trial_index","time_elapsed","internal_node_id","run_id","condition","recorded_at","source_code_version","ip","user_agent","device","browser","browser_version","platform","platform_version","referer","accept_language","PROLIFIC_PID","STUDY_ID","SESSION_ID","view_history","rt","stimulus","response","phase","question_order"
"true","false","[]","[]","[]","preload","0","2033","0.0-0.0","44","1","2025-01-25 17:11:55","af8d355d56820e421d246a7037deb6e6","149.88.24.230","Mozilla/5.0 (Windows NT 10.0; Win64; x64) AppleWebKit/537.36 (KHTML, like Gecko) Chrome/132.0.0.0 Safari/537.36","WebKit","Chrome","132.0.0.0","Windows","10.0","https://app.prolific.com/","en-US,en;q=0.9,de;q=0.8","679359525d6dac68ab9d189f","67949641171f97c04e14fb34","67951a3a6f75ca4cb41800f2","","","","","",""
"","","","","","instructions","1","26664","0.0-1.0","44","1","2025-01-25 17:11:55","af8d355d56820e421d246a7037deb6e6","149.88.24.230","Mozilla/5.0 (Windows NT 10.0; Win64; x64) AppleWebKit/537.36 (KHTML, like Gecko) Chrome/132.0.0.0 Safari/537.36","WebKit","Chrome","132.0.0.0","Windows","10.0","https://app.prolific.com/","en-US,en;q=0.9,de;q=0.8","679359525d6dac68ab9d189f","67949641171f97c04e14fb34","67951a3a6f75ca4cb41800f2","[{""page_index"":0,""viewing_time"":24628}]","24629","","","",""
"","","","","","html-keyboard-response","2","27168","0.0-2.0","44","1","2025-01-25 17:11:55","af8d355d56820e421d246a7037deb6e6","149.88.24.230","Mozilla/5.0 (Windows NT 10.0; Win64; x64) AppleWebKit/537.36 (KHTML, like Gecko) Chrome/132.0.0.0 Safari/537.36","WebKit","Chrome","132.0.0.0","Windows","10.0","https://app.prolific.com/","en-US,en;q=0.9,de;q=0.8","679359525d6dac68ab9d189f","67949641171f97c04e14fb34","67951a3a6f75ca4cb41800f2","","null","<p> + <p/>","null","",""
"","","","","","instructions","3","78123","0.0-3.0","44","1","2025-01-25 17:11:55","af8d355d56820e421d246a7037deb6e6","149.88.24.230","Mozilla/5.0 (Windows NT 10.0; Win64; x64) AppleWebKit/537.36 (KHTML, like Gecko) Chrome/132.0.0.0 Safari/537.36","WebKit","Chrome","132.0.0.0","Windows","10.0","https://app.prolific.com/","en-US,en;q=0.9,de;q=0.8","679359525d6dac68ab9d189f","67949641171f97c04e14fb34","67951a3a6f75ca4cb41800f2","[{""page_index"":0,""viewing_time"":1858},{""page_index"":1,""viewing_time"":20124},{""page_index"":2,""viewing_time"":9415},{""page_index"":3,""viewing_time"":6018},{""page_index"":4,""viewing_time"":13537}]","50952","","","",""
"","","","","","html-button-response","4","93928","0.0-4.0-0.0-0.0","44","1","2025-01-25 17:11:55","af8d355d56820e421d246a7037deb6e6","149.88.24.230","Mozilla/5.0 (Windows NT 10.0; Win64; x64) AppleWebKit/537.36 (KHTML, like Gecko) Chrome/132.0.0.0 Safari/537.36","WebKit","Chrome","132.0.0.0","Windows","10.0","https://app.prolific.com/","en-US,en;q=0.9,de;q=0.8","679359525d6dac68ab9d189f","67949641171f97c04e14fb34","67951a3a6f75ca4cb41800f2","","15802","","0","Intro Trial",""
"","","","","","html-button-response","5","94272","0.0-4.1-0.1-0.1","44","1","2025-01-25 17:11:55","af8d355d56820e421d246a7037deb6e6","149.88.24.230","Mozilla/5.0 (Windows NT 10.0; Win64; x64) AppleWebKit/537.36 (KHTML, like Gecko) Chrome/132.0.0.0 Safari/537.36","WebKit","Chrome","132.0.0.0","Windows","10.0","https://app.prolific.com/","en-US,en;q=0.9,de;q=0.8","679359525d6dac68ab9d189f","67949641171f97c04e14fb34","67951a3a6f75ca4cb41800f2","","340","","1","Intro Trial",""
"","","","","","html-button-response","6","99800","0.0-4.2-0.2-0.2","44","1","2025-01-25 17:11:55","af8d355d56820e421d246a7037deb6e6","149.88.24.230","Mozilla/5.0 (Windows NT 10.0; Win64; x64) AppleWebKit/537.36 (KHTML, like Gecko) Chrome/132.0.0.0 Safari/537.36","WebKit","Chrome","132.0.0.0","Windows","10.0","https://app.prolific.com/","en-US,en;q=0.9,de;q=0.8","679359525d6dac68ab9d189f","67949641171f97c04e14fb34","67951a3a6f75ca4cb41800f2","","5526","","1","Intro Trial",""
"","","","","","html-button-response","7","100532","0.0-4.3-0.3-0.3","44","1","2025-01-25 17:11:55","af8d355d56820e421d246a7037deb6e6","149.88.24.230","Mozilla/5.0 (Windows NT 10.0; Win64; x64) AppleWebKit/537.36 (KHTML, like Gecko) Chrome/132.0.0.0 Safari/537.36","WebKit","Chrome","132.0.0.0","Windows","10.0","https://app.prolific.com/","en-US,en;q=0.9,de;q=0.8","679359525d6dac68ab9d189f","67949641171f97c04e14fb34","67951a3a6f75ca4cb41800f2","","730","","0","Intro Trial",""
"","","","","","html-button-response","8","101842","0.0-4.4-0.4-0.4","44","1","2025-01-25 17:11:55","af8d355d56820e421d246a7037deb6e6","149.88.24.230","Mozilla/5.0 (Windows NT 10.0; Win64; x64) AppleWebKit/537.36 (KHTML, like Gecko) Chrome/132.0.0.0 Safari/537.36","WebKit","Chrome","132.0.0.0","Windows","10.0","https://app.prolific.com/","en-US,en;q=0.9,de;q=0.8","679359525d6dac68ab9d189f","67949641171f97c04e14fb34","67951a3a6f75ca4cb41800f2","","1307","","0","Intro Trial",""
"","","","","","html-button-response","9","102198","0.0-4.5-0.5-0.5","44","1","2025-01-25 17:11:55","af8d355d56820e421d246a7037deb6e6","149.88.24.230","Mozilla/5.0 (Windows NT 10.0; Win64; x64) AppleWebKit/537.36 (KHTML, like Gecko) Chrome/132.0.0.0 Safari/537.36","WebKit","Chrome","132.0.0.0","Windows","10.0","https://app.prolific.com/","en-US,en;q=0.9,de;q=0.8","679359525d6dac68ab9d189f","67949641171f97c04e14fb34","67951a3a6f75ca4cb41800f2","","353","","1","Intro Trial",""
"","","","","","html-button-response","10","102943","0.0-4.6-0.6-0.6","44","1","2025-01-25 17:11:55","af8d355d56820e421d246a7037deb6e6","149.88.24.230","Mozilla/5.0 (Windows NT 10.0; Win64; x64) AppleWebKit/537.36 (KHTML, like Gecko) Chrome/132.0.0.0 Safari/537.36","WebKit","Chrome","132.0.0.0","Windows","10.0","https://app.prolific.com/","en-US,en;q=0.9,de;q=0.8","679359525d6dac68ab9d189f","67949641171f97c04e14fb34","67951a3a6f75ca4cb41800f2","","742","","0","Intro Trial",""
"","","","","","html-button-response","11","103169","0.0-4.7-0.7-0.7","44","1","2025-01-25 17:11:55","af8d355d56820e421d246a7037deb6e6","149.88.24.230","Mozilla/5.0 (Windows NT 10.0; Win64; x64) AppleWebKit/537.36 (KHTML, like Gecko) Chrome/132.0.0.0 Safari/537.36","WebKit","Chrome","132.0.0.0","Windows","10.0","https://app.prolific.com/","en-US,en;q=0.9,de;q=0.8","679359525d6dac68ab9d189f","67949641171f97c04e14fb34","67951a3a6f75ca4cb41800f2","","223","","0","Intro Trial",""
"","","","","","html-button-response","12","104910","0.0-4.8-0.8-0.8","44","1","2025-01-25 17:11:55","af8d355d56820e421d246a7037deb6e6","149.88.24.230","Mozilla/5.0 (Windows NT 10.0; Win64; x64) AppleWebKit/537.36 (KHTML, like Gecko) Chrome/132.0.0.0 Safari/537.36","WebKit","Chrome","132.0.0.0","Windows","10.0","https://app.prolific.com/","en-US,en;q=0.9,de;q=0.8","679359525d6dac68ab9d189f","67949641171f97c04e14fb34","67951a3a6f75ca4cb41800f2","","1737","","1","Intro Trial",""
"","","","","","html-button-response","13","105327","0.0-4.9-0.9-0.9","44","1","2025-01-25 17:11:55","af8d355d56820e421d246a7037deb6e6","149.88.24.230","Mozilla/5.0 (Windows NT 10.0; Win64; x64) AppleWebKit/537.36 (KHTML, like Gecko) Chrome/132.0.0.0 Safari/537.36","WebKit","Chrome","132.0.0.0","Windows","10.0","https://app.prolific.com/","en-US,en;q=0.9,de;q=0.8","679359525d6dac68ab9d189f","67949641171f97c04e14fb34","67951a3a6f75ca4cb41800f2","","415","","2","Intro Trial",""
"","","","","","html-button-response","14","106494","0.0-4.10-0.10-0.10","44","1","2025-01-25 17:11:55","af8d355d56820e421d246a7037deb6e6","149.88.24.230","Mozilla/5.0 (Windows NT 10.0; Win64; x64) AppleWebKit/537.36 (KHTML, like Gecko) Chrome/132.0.0.0 Safari/537.36","WebKit","Chrome","132.0.0.0","Windows","10.0","https://app.prolific.com/","en-US,en;q=0.9,de;q=0.8","679359525d6dac68ab9d189f","67949641171f97c04e14fb34","67951a3a6f75ca4cb41800f2","","1164","","1","Intro Trial",""
"","","","","","html-button-response","15","106791","0.0-4.11-0.11-0.11","44","1","2025-01-25 17:11:55","af8d355d56820e421d246a7037deb6e6","149.88.24.230","Mozilla/5.0 (Windows NT 10.0; Win64; x64) AppleWebKit/537.36 (KHTML, like Gecko) Chrome/132.0.0.0 Safari/537.36","WebKit","Chrome","132.0.0.0","Windows","10.0","https://app.prolific.com/","en-US,en;q=0.9,de;q=0.8","679359525d6dac68ab9d189f","67949641171f97c04e14fb34","67951a3a6f75ca4cb41800f2","","295","","2","Intro Trial",""
"","","","","","html-button-response","16","107948","0.0-4.12-0.12-0.12","44","1","2025-01-25 17:11:55","af8d355d56820e421d246a7037deb6e6","149.88.24.230","Mozilla/5.0 (Windows NT 10.0; Win64; x64) AppleWebKit/537.36 (KHTML, like Gecko) Chrome/132.0.0.0 Safari/537.36","WebKit","Chrome","132.0.0.0","Windows","10.0","https://app.prolific.com/","en-US,en;q=0.9,de;q=0.8","679359525d6dac68ab9d189f","67949641171f97c04e14fb34","67951a3a6f75ca4cb41800f2","","1153","","3","Intro Trial",""
"","","","","","html-button-response","17","108612","0.0-4.13-0.13-0.13","44","1","2025-01-25 17:11:55","af8d355d56820e421d246a7037deb6e6","149.88.24.230","Mozilla/5.0 (Windows NT 10.0; Win64; x64) AppleWebKit/537.36 (KHTML, like Gecko) Chrome/132.0.0.0 Safari/537.36","WebKit","Chrome","132.0.0.0","Windows","10.0","https://app.prolific.com/","en-US,en;q=0.9,de;q=0.8","679359525d6dac68ab9d189f","67949641171f97c04e14fb34","67951a3a6f75ca4cb41800f2","","660","","4","Intro Trial",""
"","","","","","html-button-response","18","109664","0.0-4.14-0.14-0.14","44","1","2025-01-25 17:11:55","af8d355d56820e421d246a7037deb6e6","149.88.24.230","Mozilla/5.0 (Windows NT 10.0; Win64; x64) AppleWebKit/537.36 (KHTML, like Gecko) Chrome/132.0.0.0 Safari/537.36","WebKit","Chrome","132.0.0.0","Windows","10.0","https://app.prolific.com/","en-US,en;q=0.9,de;q=0.8","679359525d6dac68ab9d189f","67949641171f97c04e14fb34","67951a3a6f75ca4cb41800f2","","1048","","2","Intro Trial",""
"","","","","","html-button-response","19","109909","0.0-4.15-0.15-0.15","44","1","2025-01-25 17:11:55","af8d355d56820e421d246a7037deb6e6","149.88.24.230","Mozilla/5.0 (Windows NT 10.0; Win64; x64) AppleWebKit/537.36 (KHTML, like Gecko) Chrome/132.0.0.0 Safari/537.36","WebKit","Chrome","132.0.0.0","Windows","10.0","https://app.prolific.com/","en-US,en;q=0.9,de;q=0.8","679359525d6dac68ab9d189f","67949641171f97c04e14fb34","67951a3a6f75ca4cb41800f2","","241","","3","Intro Trial",""
"","","","","","html-button-response","20","110866","0.0-4.16-0.16-0.16","44","1","2025-01-25 17:11:55","af8d355d56820e421d246a7037deb6e6","149.88.24.230","Mozilla/5.0 (Windows NT 10.0; Win64; x64) AppleWebKit/537.36 (KHTML, like Gecko) Chrome/132.0.0.0 Safari/537.36","WebKit","Chrome","132.0.0.0","Windows","10.0","https://app.prolific.com/","en-US,en;q=0.9,de;q=0.8","679359525d6dac68ab9d189f","67949641171f97c04e14fb34","67951a3a6f75ca4cb41800f2","","954","","1","Intro Trial",""
"","","","","","html-button-response","21","111104","0.0-4.17-0.17-0.17","44","1","2025-01-25 17:11:55","af8d355d56820e421d246a7037deb6e6","149.88.24.230","Mozilla/5.0 (Windows NT 10.0; Win64; x64) AppleWebKit/537.36 (KHTML, like Gecko) Chrome/132.0.0.0 Safari/537.36","WebKit","Chrome","132.0.0.0","Windows","10.0","https://app.prolific.com/","en-US,en;q=0.9,de;q=0.8","679359525d6dac68ab9d189f","67949641171f97c04e14fb34","67951a3a6f75ca4cb41800f2","","234","","2","Intro Trial",""
"","","","","","html-button-response","22","112211","0.0-4.18-0.18-0.18","44","1","2025-01-25 17:11:55","af8d355d56820e421d246a7037deb6e6","149.88.24.230","Mozilla/5.0 (Windows NT 10.0; Win64; x64) AppleWebKit/537.36 (KHTML, like Gecko) Chrome/132.0.0.0 Safari/537.36","WebKit","Chrome","132.0.0.0","Windows","10.0","https://app.prolific.com/","en-US,en;q=0.9,de;q=0.8","679359525d6dac68ab9d189f","67949641171f97c04e14fb34","67951a3a6f75ca4cb41800f2","","1104","","0","Intro Trial",""
"","","","","","html-button-response","23","112412","0.0-4.19-0.19-0.19","44","1","2025-01-25 17:11:55","af8d355d56820e421d246a7037deb6e6","149.88.24.230","Mozilla/5.0 (Windows NT 10.0; Win64; x64) AppleWebKit/537.36 (KHTML, like Gecko) Chrome/132.0.0.0 Safari/537.36","WebKit","Chrome","132.0.0.0","Windows","10.0","https://app.prolific.com/","en-US,en;q=0.9,de;q=0.8","679359525d6dac68ab9d189f","67949641171f97c04e14fb34","67951a3a6f75ca4cb41800f2","","198","","1","Intro Trial",""
"","","","","","html-button-response","24","114029","0.0-4.20-0.20-0.20","44","1","2025-01-25 17:11:55","af8d355d56820e421d246a7037deb6e6","149.88.24.230","Mozilla/5.0 (Windows NT 10.0; Win64; x64) AppleWebKit/537.36 (KHTML, like Gecko) Chrome/132.0.0.0 Safari/537.36","WebKit","Chrome","132.0.0.0","Windows","10.0","https://app.prolific.com/","en-US,en;q=0.9,de;q=0.8","679359525d6dac68ab9d189f","67949641171f97c04e14fb34","67951a3a6f75ca4cb41800f2","","1615","","4","Intro Trial",""
"","","","","","html-button-response","25","115245","0.0-4.21-0.21-0.21","44","1","2025-01-25 17:11:55","af8d355d56820e421d246a7037deb6e6","149.88.24.230","Mozilla/5.0 (Windows NT 10.0; Win64; x64) AppleWebKit/537.36 (KHTML, like Gecko) Chrome/132.0.0.0 Safari/537.36","WebKit","Chrome","132.0.0.0","Windows","10.0","https://app.prolific.com/","en-US,en;q=0.9,de;q=0.8","679359525d6dac68ab9d189f","67949641171f97c04e14fb34","67951a3a6f75ca4cb41800f2","","1213","","4","Intro Trial",""
"","","","","","html-button-response","26","115594","0.0-4.22-0.22-0.22","44","1","2025-01-25 17:11:55","af8d355d56820e421d246a7037deb6e6","149.88.24.230","Mozilla/5.0 (Windows NT 10.0; Win64; x64) AppleWebKit/537.36 (KHTML, like Gecko) Chrome/132.0.0.0 Safari/537.36","WebKit","Chrome","132.0.0.0","Windows","10.0","https://app.prolific.com/","en-US,en;q=0.9,de;q=0.8","679359525d6dac68ab9d189f","67949641171f97c04e14fb34","67951a3a6f75ca4cb41800f2","","346","","2","Intro Trial",""
"","","","","","html-button-response","27","115862","0.0-4.23-0.23-0.23","44","1","2025-01-25 17:11:55","af8d355d56820e421d246a7037deb6e6","149.88.24.230","Mozilla/5.0 (Windows NT 10.0; Win64; x64) AppleWebKit/537.36 (KHTML, like Gecko) Chrome/132.0.0.0 Safari/537.36","WebKit","Chrome","132.0.0.0","Windows","10.0","https://app.prolific.com/","en-US,en;q=0.9,de;q=0.8","679359525d6dac68ab9d189f","67949641171f97c04e14fb34","67951a3a6f75ca4cb41800f2","","264","","3","Intro Trial",""
"","","","","","html-button-response","28","116306","0.0-4.24-0.24-0.24","44","1","2025-01-25 17:11:55","af8d355d56820e421d246a7037deb6e6","149.88.24.230","Mozilla/5.0 (Windows NT 10.0; Win64; x64) AppleWebKit/537.36 (KHTML, like Gecko) Chrome/132.0.0.0 Safari/537.36","WebKit","Chrome","132.0.0.0","Windows","10.0","https://app.prolific.com/","en-US,en;q=0.9,de;q=0.8","679359525d6dac68ab9d189f","67949641171f97c04e14fb34","67951a3a6f75ca4cb41800f2","","439","","1","Intro Trial",""
"","","","","","html-button-response","29","116523","0.0-4.25-0.25-0.25","44","1","2025-01-25 17:11:55","af8d355d56820e421d246a7037deb6e6","149.88.24.230","Mozilla/5.0 (Windows NT 10.0; Win64; x64) AppleWebKit/537.36 (KHTML, like Gecko) Chrome/132.0.0.0 Safari/537.36","WebKit","Chrome","132.0.0.0","Windows","10.0","https://app.prolific.com/","en-US,en;q=0.9,de;q=0.8","679359525d6dac68ab9d189f","67949641171f97c04e14fb34","67951a3a6f75ca4cb41800f2","","213","","2","Intro Trial",""
"","","","","","html-button-response","30","116836","0.0-4.26-0.26-0.26","44","1","2025-01-25 17:11:55","af8d355d56820e421d246a7037deb6e6","149.88.24.230","Mozilla/5.0 (Windows NT 10.0; Win64; x64) AppleWebKit/537.36 (KHTML, like Gecko) Chrome/132.0.0.0 Safari/537.36","WebKit","Chrome","132.0.0.0","Windows","10.0","https://app.prolific.com/","en-US,en;q=0.9,de;q=0.8","679359525d6dac68ab9d189f","67949641171f97c04e14fb34","67951a3a6f75ca4cb41800f2","","309","","0","Intro Trial",""
"","","","","","html-button-response","31","117057","0.0-4.27-0.27-0.27","44","1","2025-01-25 17:11:55","af8d355d56820e421d246a7037deb6e6","149.88.24.230","Mozilla/5.0 (Windows NT 10.0; Win64; x64) AppleWebKit/537.36 (KHTML, like Gecko) Chrome/132.0.0.0 Safari/537.36","WebKit","Chrome","132.0.0.0","Windows","10.0","https://app.prolific.com/","en-US,en;q=0.9,de;q=0.8","679359525d6dac68ab9d189f","67949641171f97c04e14fb34","67951a3a6f75ca4cb41800f2","","218","","1","Intro Trial",""
"","","","","","html-button-response","32","122787","0.0-4.28-0.28-0.28","44","1","2025-01-25 17:11:55","af8d355d56820e421d246a7037deb6e6","149.88.24.230","Mozilla/5.0 (Windows NT 10.0; Win64; x64) AppleWebKit/537.36 (KHTML, like Gecko) Chrome/132.0.0.0 Safari/537.36","WebKit","Chrome","132.0.0.0","Windows","10.0","https://app.prolific.com/","en-US,en;q=0.9,de;q=0.8","679359525d6dac68ab9d189f","67949641171f97c04e14fb34","67951a3a6f75ca4cb41800f2","","5726","","5","Intro Trial",""
"","","","","","html-keyboard-response","33","131500","0.0-5.0","44","1","2025-01-25 17:11:55","af8d355d56820e421d246a7037deb6e6","149.88.24.230","Mozilla/5.0 (Windows NT 10.0; Win64; x64) AppleWebKit/537.36 (KHTML, like Gecko) Chrome/132.0.0.0 Safari/537.36","WebKit","Chrome","132.0.0.0","Windows","10.0","https://app.prolific.com/","en-US,en;q=0.9,de;q=0.8","679359525d6dac68ab9d189f","67949641171f97c04e14fb34","67951a3a6f75ca4cb41800f2","","8709","[""You sorted correctly by using the balance 12 times. <br><br> <img src='G_5.jpg' height='90'><img src='G_2.jpg' height='90'><img src='G_3.jpg' height='90'><img src='G_1.jpg' height='90'><img src='G_4.jpg' height='90'><br><br> Your final order is 1,2,3,4,5<br><br><br>Omgne Sort in this game will allow you to sort correctly by using the balance 8 times. Press Enter to learn it!""]","enter","",""
"","","","","","html-keyboard-response","34","136472","0.0-6.0","44","1","2025-01-25 17:11:55","af8d355d56820e421d246a7037deb6e6","149.88.24.230","Mozilla/5.0 (Windows NT 10.0; Win64; x64) AppleWebKit/537.36 (KHTML, like Gecko) Chrome/132.0.0.0 Safari/537.36","WebKit","Chrome","132.0.0.0","Windows","10.0","https://app.prolific.com/","en-US,en;q=0.9,de;q=0.8","679359525d6dac68ab9d189f","67949641171f97c04e14fb34","67951a3a6f75ca4cb41800f2","","4969","<p>Welcome to the learning phase! <br><br> You will learn by six examples. The following learning trials will not be used to calculate your performance. <br><br> Press Enter to continue.<p/>","enter","",""
"","","","","","html-keyboard-response","35","142906","0.0-7.0","44","1","2025-01-25 17:11:55","af8d355d56820e421d246a7037deb6e6","149.88.24.230","Mozilla/5.0 (Windows NT 10.0; Win64; x64) AppleWebKit/537.36 (KHTML, like Gecko) Chrome/132.0.0.0 Safari/537.36","WebKit","Chrome","132.0.0.0","Windows","10.0","https://app.prolific.com/","en-US,en;q=0.9,de;q=0.8","679359525d6dac68ab9d189f","67949641171f97c04e14fb34","67951a3a6f75ca4cb41800f2","","6430","[""Example 1<br><br>You will watch Omnge Sort in action. Try to identify any patterns in the comparisons made by this method. <br><br>Press Enter to continue.""]","enter","",""
"","","","","","html-keyboard-response","36","143418","0.0-8.0","44","1","2025-01-25 17:11:55","af8d355d56820e421d246a7037deb6e6","149.88.24.230","Mozilla/5.0 (Windows NT 10.0; Win64; x64) AppleWebKit/537.36 (KHTML, like Gecko) Chrome/132.0.0.0 Safari/537.36","WebKit","Chrome","132.0.0.0","Windows","10.0","https://app.prolific.com/","en-US,en;q=0.9,de;q=0.8","679359525d6dac68ab9d189f","67949641171f97c04e14fb34","67951a3a6f75ca4cb41800f2","","null","<img id='selected' src='G_1.jpg' height='90'> <img src='G_5.jpg' height='90'> <img src='G_9.jpg' height='90'> <img src='G_3.jpg' height='90'> <img src='G_7.jpg' height='90'>","null","Animation0",""
"","","","","","html-keyboard-response","37","143930","0.0-9.0","44","1","2025-01-25 17:11:55","af8d355d56820e421d246a7037deb6e6","149.88.24.230","Mozilla/5.0 (Windows NT 10.0; Win64; x64) AppleWebKit/537.36 (KHTML, like Gecko) Chrome/132.0.0.0 Safari/537.36","WebKit","Chrome","132.0.0.0","Windows","10.0","https://app.prolific.com/","en-US,en;q=0.9,de;q=0.8","679359525d6dac68ab9d189f","67949641171f97c04e14fb34","67951a3a6f75ca4cb41800f2","","null","<img id='selected' src='G_1.jpg' height='90'> <img id='selected' src='G_5.jpg' height='90'> <img src='G_9.jpg' height='90'> <img src='G_3.jpg' height='90'> <img src='G_7.jpg' height='90'>","null","Animation0",""
"","","","","","html-keyboard-response","38","144444","0.0-10.0","44","1","2025-01-25 17:11:55","af8d355d56820e421d246a7037deb6e6","149.88.24.230","Mozilla/5.0 (Windows NT 10.0; Win64; x64) AppleWebKit/537.36 (KHTML, like Gecko) Chrome/132.0.0.0 Safari/537.36","WebKit","Chrome","132.0.0.0","Windows","10.0","https://app.prolific.com/","en-US,en;q=0.9,de;q=0.8","679359525d6dac68ab9d189f","67949641171f97c04e14fb34","67951a3a6f75ca4cb41800f2","","null","<img id='swapped' src='G_5.jpg' height='90'> <img id='swapped' src='G_1.jpg' height='90'> <img src='G_9.jpg' height='90'> <img src='G_3.jpg' height='90'> <img src='G_7.jpg' height='90'>","null","Animation0",""
"","","","","","html-keyboard-response","39","144755","0.0-11.0","44","1","2025-01-25 17:11:55","af8d355d56820e421d246a7037deb6e6","149.88.24.230","Mozilla/5.0 (Windows NT 10.0; Win64; x64) AppleWebKit/537.36 (KHTML, like Gecko) Chrome/132.0.0.0 Safari/537.36","WebKit","Chrome","132.0.0.0","Windows","10.0","https://app.prolific.com/","en-US,en;q=0.9,de;q=0.8","679359525d6dac68ab9d189f","67949641171f97c04e14fb34","67951a3a6f75ca4cb41800f2","","null","<img  src='G_5.jpg' height='90'> <img  src='G_1.jpg' height='90'> <img src='G_9.jpg' height='90'> <img src='G_3.jpg' height='90'> <img src='G_7.jpg' height='90'>","null","Animation0",""
"","","","","","html-keyboard-response","40","145267","0.0-12.0","44","1","2025-01-25 17:11:55","af8d355d56820e421d246a7037deb6e6","149.88.24.230","Mozilla/5.0 (Windows NT 10.0; Win64; x64) AppleWebKit/537.36 (KHTML, like Gecko) Chrome/132.0.0.0 Safari/537.36","WebKit","Chrome","132.0.0.0","Windows","10.0","https://app.prolific.com/","en-US,en;q=0.9,de;q=0.8","679359525d6dac68ab9d189f","67949641171f97c04e14fb34","67951a3a6f75ca4cb41800f2","","null","<img  src='G_5.jpg' height='90'> <img id='selected'  src='G_1.jpg' height='90'> <img src='G_9.jpg' height='90'> <img src='G_3.jpg' height='90'> <img src='G_7.jpg' height='90'>","null","Animation0",""
"","","","","","html-keyboard-response","41","145781","0.0-13.0","44","1","2025-01-25 17:11:55","af8d355d56820e421d246a7037deb6e6","149.88.24.230","Mozilla/5.0 (Windows NT 10.0; Win64; x64) AppleWebKit/537.36 (KHTML, like Gecko) Chrome/132.0.0.0 Safari/537.36","WebKit","Chrome","132.0.0.0","Windows","10.0","https://app.prolific.com/","en-US,en;q=0.9,de;q=0.8","679359525d6dac68ab9d189f","67949641171f97c04e14fb34","67951a3a6f75ca4cb41800f2","","null","<img  src='G_5.jpg' height='90'> <img id='selected'  src='G_1.jpg' height='90'> <img id='selected' src='G_9.jpg' height='90'> <img src='G_3.jpg' height='90'> <img src='G_7.jpg' height='90'>","null","Animation0",""
"","","","","","html-keyboard-response","42","146295","0.0-14.0","44","1","2025-01-25 17:11:55","af8d355d56820e421d246a7037deb6e6","149.88.24.230","Mozilla/5.0 (Windows NT 10.0; Win64; x64) AppleWebKit/537.36 (KHTML, like Gecko) Chrome/132.0.0.0 Safari/537.36","WebKit","Chrome","132.0.0.0","Windows","10.0","https://app.prolific.com/","en-US,en;q=0.9,de;q=0.8","679359525d6dac68ab9d189f","67949641171f97c04e14fb34","67951a3a6f75ca4cb41800f2","","null","<img  src='G_5.jpg' height='90'> <img id='selected'  src='G_1.jpg' height='90'> <img id='selected' src='G_9.jpg' height='90'> <img src='G_3.jpg' height='90'> <img src='G_7.jpg' height='90'>","null","Animation0",""
"","","","","","html-keyboard-response","43","146602","0.0-15.0","44","1","2025-01-25 17:11:55","af8d355d56820e421d246a7037deb6e6","149.88.24.230","Mozilla/5.0 (Windows NT 10.0; Win64; x64) AppleWebKit/537.36 (KHTML, like Gecko) Chrome/132.0.0.0 Safari/537.36","WebKit","Chrome","132.0.0.0","Windows","10.0","https://app.prolific.com/","en-US,en;q=0.9,de;q=0.8","679359525d6dac68ab9d189f","67949641171f97c04e14fb34","67951a3a6f75ca4cb41800f2","","null","<img  src='G_5.jpg' height='90'> <img   src='G_1.jpg' height='90'> <img  src='G_9.jpg' height='90'> <img src='G_3.jpg' height='90'> <img src='G_7.jpg' height='90'>","null","Animation0",""
"","","","","","html-keyboard-response","44","147112","0.0-16.0","44","1","2025-01-25 17:11:55","af8d355d56820e421d246a7037deb6e6","149.88.24.230","Mozilla/5.0 (Windows NT 10.0; Win64; x64) AppleWebKit/537.36 (KHTML, like Gecko) Chrome/132.0.0.0 Safari/537.36","WebKit","Chrome","132.0.0.0","Windows","10.0","https://app.prolific.com/","en-US,en;q=0.9,de;q=0.8","679359525d6dac68ab9d189f","67949641171f97c04e14fb34","67951a3a6f75ca4cb41800f2","","null","<img  src='G_5.jpg' height='90'> <img   src='G_1.jpg' height='90'> <img id='selected'  src='G_9.jpg' height='90'> <img src='G_3.jpg' height='90'> <img src='G_7.jpg' height='90'>","null","Animation0",""
"","","","","","html-keyboard-response","45","147621","0.0-17.0","44","1","2025-01-25 17:11:55","af8d355d56820e421d246a7037deb6e6","149.88.24.230","Mozilla/5.0 (Windows NT 10.0; Win64; x64) AppleWebKit/537.36 (KHTML, like Gecko) Chrome/132.0.0.0 Safari/537.36","WebKit","Chrome","132.0.0.0","Windows","10.0","https://app.prolific.com/","en-US,en;q=0.9,de;q=0.8","679359525d6dac68ab9d189f","67949641171f97c04e14fb34","67951a3a6f75ca4cb41800f2","","null","<img  src='G_5.jpg' height='90'> <img   src='G_1.jpg' height='90'> <img id='selected'  src='G_9.jpg' height='90'> <img id='selected' src='G_3.jpg' height='90'> <img src='G_7.jpg' height='90'>","null","Animation0",""
"","","","","","html-keyboard-response","46","148132","0.0-18.0","44","1","2025-01-25 17:11:55","af8d355d56820e421d246a7037deb6e6","149.88.24.230","Mozilla/5.0 (Windows NT 10.0; Win64; x64) AppleWebKit/537.36 (KHTML, like Gecko) Chrome/132.0.0.0 Safari/537.36","WebKit","Chrome","132.0.0.0","Windows","10.0","https://app.prolific.com/","en-US,en;q=0.9,de;q=0.8","679359525d6dac68ab9d189f","67949641171f97c04e14fb34","67951a3a6f75ca4cb41800f2","","null","<img  src='G_5.jpg' height='90'> <img   src='G_1.jpg' height='90'> <img id='selected'  src='G_9.jpg' height='90'> <img id='selected' src='G_3.jpg' height='90'> <img src='G_7.jpg' height='90'>","null","Animation0",""
"","","","","","html-keyboard-response","47","148442","0.0-19.0","44","1","2025-01-25 17:11:55","af8d355d56820e421d246a7037deb6e6","149.88.24.230","Mozilla/5.0 (Windows NT 10.0; Win64; x64) AppleWebKit/537.36 (KHTML, like Gecko) Chrome/132.0.0.0 Safari/537.36","WebKit","Chrome","132.0.0.0","Windows","10.0","https://app.prolific.com/","en-US,en;q=0.9,de;q=0.8","679359525d6dac68ab9d189f","67949641171f97c04e14fb34","67951a3a6f75ca4cb41800f2","","null","<img  src='G_5.jpg' height='90'> <img   src='G_1.jpg' height='90'> <img   src='G_9.jpg' height='90'> <img  src='G_3.jpg' height='90'> <img src='G_7.jpg' height='90'>","null","Animation0",""
"","","","","","html-keyboard-response","48","148952","0.0-20.0","44","1","2025-01-25 17:11:55","af8d355d56820e421d246a7037deb6e6","149.88.24.230","Mozilla/5.0 (Windows NT 10.0; Win64; x64) AppleWebKit/537.36 (KHTML, like Gecko) Chrome/132.0.0.0 Safari/537.36","WebKit","Chrome","132.0.0.0","Windows","10.0","https://app.prolific.com/","en-US,en;q=0.9,de;q=0.8","679359525d6dac68ab9d189f","67949641171f97c04e14fb34","67951a3a6f75ca4cb41800f2","","null","<img  src='G_5.jpg' height='90'> <img   src='G_1.jpg' height='90'> <img   src='G_9.jpg' height='90'> <img id='selected'  src='G_3.jpg' height='90'> <img src='G_7.jpg' height='90'>","null","Animation0",""
"","","","","","html-keyboard-response","49","149459","0.0-21.0","44","1","2025-01-25 17:11:55","af8d355d56820e421d246a7037deb6e6","149.88.24.230","Mozilla/5.0 (Windows NT 10.0; Win64; x64) AppleWebKit/537.36 (KHTML, like Gecko) Chrome/132.0.0.0 Safari/537.36","WebKit","Chrome","132.0.0.0","Windows","10.0","https://app.prolific.com/","en-US,en;q=0.9,de;q=0.8","679359525d6dac68ab9d189f","67949641171f97c04e14fb34","67951a3a6f75ca4cb41800f2","","null","<img  src='G_5.jpg' height='90'> <img   src='G_1.jpg' height='90'> <img   src='G_9.jpg' height='90'> <img id='selected'  src='G_3.jpg' height='90'> <img id='selected' src='G_7.jpg' height='90'>","null","Animation0",""
"","","","","","html-keyboard-response","50","149970","0.0-22.0","44","1","2025-01-25 17:11:55","af8d355d56820e421d246a7037deb6e6","149.88.24.230","Mozilla/5.0 (Windows NT 10.0; Win64; x64) AppleWebKit/537.36 (KHTML, like Gecko) Chrome/132.0.0.0 Safari/537.36","WebKit","Chrome","132.0.0.0","Windows","10.0","https://app.prolific.com/","en-US,en;q=0.9,de;q=0.8","679359525d6dac68ab9d189f","67949641171f97c04e14fb34","67951a3a6f75ca4cb41800f2","","null","<img  src='G_5.jpg' height='90'> <img   src='G_1.jpg' height='90'> <img   src='G_9.jpg' height='90'> <img id='selected'  src='G_3.jpg' height='90'> <img id='selected' src='G_7.jpg' height='90'>","null","Animation0",""
"","","","","","html-keyboard-response","51","150278","0.0-23.0","44","1","2025-01-25 17:11:55","af8d355d56820e421d246a7037deb6e6","149.88.24.230","Mozilla/5.0 (Windows NT 10.0; Win64; x64) AppleWebKit/537.36 (KHTML, like Gecko) Chrome/132.0.0.0 Safari/537.36","WebKit","Chrome","132.0.0.0","Windows","10.0","https://app.prolific.com/","en-US,en;q=0.9,de;q=0.8","679359525d6dac68ab9d189f","67949641171f97c04e14fb34","67951a3a6f75ca4cb41800f2","","null","<img  src='G_5.jpg' height='90'> <img   src='G_1.jpg' height='90'> <img   src='G_9.jpg' height='90'> <img   src='G_3.jpg' height='90'> <img  src='G_7.jpg' height='90'>","null","Animation0",""
"","","","","","html-keyboard-response","52","156343","0.0-24.0","44","1","2025-01-25 17:11:55","af8d355d56820e421d246a7037deb6e6","149.88.24.230","Mozilla/5.0 (Windows NT 10.0; Win64; x64) AppleWebKit/537.36 (KHTML, like Gecko) Chrome/132.0.0.0 Safari/537.36","WebKit","Chrome","132.0.0.0","Windows","10.0","https://app.prolific.com/","en-US,en;q=0.9,de;q=0.8","679359525d6dac68ab9d189f","67949641171f97c04e14fb34","67951a3a6f75ca4cb41800f2","","6060","[""Did you notice any patterns? <br><br>Press Enter to watch that example again and follow the steps of Omgne Sort.""]","enter","",""
"","","","","","html-button-response","53","156762","0.0-25.0","44","1","2025-01-25 17:11:55","af8d355d56820e421d246a7037deb6e6","149.88.24.230","Mozilla/5.0 (Windows NT 10.0; Win64; x64) AppleWebKit/537.36 (KHTML, like Gecko) Chrome/132.0.0.0 Safari/537.36","WebKit","Chrome","132.0.0.0","Windows","10.0","https://app.prolific.com/","en-US,en;q=0.9,de;q=0.8","679359525d6dac68ab9d189f","67949641171f97c04e14fb34","67951a3a6f75ca4cb41800f2","","null","<img id='selected' src='G_1.jpg' height='90'> <img src='G_5.jpg' height='90'> <img src='G_9.jpg' height='90'> <img src='G_3.jpg' height='90'> <img src='G_7.jpg' height='90'>","null","Learning example 0",""
"","","","","","html-button-response","54","157070","0.0-26.0","44","1","2025-01-25 17:11:55","af8d355d56820e421d246a7037deb6e6","149.88.24.230","Mozilla/5.0 (Windows NT 10.0; Win64; x64) AppleWebKit/537.36 (KHTML, like Gecko) Chrome/132.0.0.0 Safari/537.36","WebKit","Chrome","132.0.0.0","Windows","10.0","https://app.prolific.com/","en-US,en;q=0.9,de;q=0.8","679359525d6dac68ab9d189f","67949641171f97c04e14fb34","67951a3a6f75ca4cb41800f2","","null","<img id='selected' src='G_1.jpg' height='90'> <img id='selected' src='G_5.jpg' height='90'> <img src='G_9.jpg' height='90'> <img src='G_3.jpg' height='90'> <img src='G_7.jpg' height='90'>","null","Learning example 0",""
"","","","","","html-button-response","55","157381","0.0-27.0","44","1","2025-01-25 17:11:55","af8d355d56820e421d246a7037deb6e6","149.88.24.230","Mozilla/5.0 (Windows NT 10.0; Win64; x64) AppleWebKit/537.36 (KHTML, like Gecko) Chrome/132.0.0.0 Safari/537.36","WebKit","Chrome","132.0.0.0","Windows","10.0","https://app.prolific.com/","en-US,en;q=0.9,de;q=0.8","679359525d6dac68ab9d189f","67949641171f97c04e14fb34","67951a3a6f75ca4cb41800f2","","null","<img id='swapped' src='G_5.jpg' height='90'> <img id='swapped' src='G_1.jpg' height='90'> <img src='G_9.jpg' height='90'> <img src='G_3.jpg' height='90'> <img src='G_7.jpg' height='90'>","null","Learning example 0",""
"","","","","","html-button-response","56","158507","0.0-28.0-0.0-0.0","44","1","2025-01-25 17:11:55","af8d355d56820e421d246a7037deb6e6","149.88.24.230","Mozilla/5.0 (Windows NT 10.0; Win64; x64) AppleWebKit/537.36 (KHTML, like Gecko) Chrome/132.0.0.0 Safari/537.36","WebKit","Chrome","132.0.0.0","Windows","10.0","https://app.prolific.com/","en-US,en;q=0.9,de;q=0.8","679359525d6dac68ab9d189f","67949641171f97c04e14fb34","67951a3a6f75ca4cb41800f2","","1117","<img id='swapped' src='G_5.jpg' height='90'> <img id='swapped' src='G_1.jpg' height='90'> <img src='G_9.jpg' height='90'> <img src='G_3.jpg' height='90'> <img src='G_7.jpg' height='90'>","0","Learning example 0",""
"","","","","","html-button-response","57","158814","0.0-28.1-0.1-0.1","44","1","2025-01-25 17:11:55","af8d355d56820e421d246a7037deb6e6","149.88.24.230","Mozilla/5.0 (Windows NT 10.0; Win64; x64) AppleWebKit/537.36 (KHTML, like Gecko) Chrome/132.0.0.0 Safari/537.36","WebKit","Chrome","132.0.0.0","Windows","10.0","https://app.prolific.com/","en-US,en;q=0.9,de;q=0.8","679359525d6dac68ab9d189f","67949641171f97c04e14fb34","67951a3a6f75ca4cb41800f2","","301","<img id='swapped' src='G_5.jpg' height='90'> <img id='swapped' src='G_1.jpg' height='90'> <img src='G_9.jpg' height='90'> <img src='G_3.jpg' height='90'> <img src='G_7.jpg' height='90'>","1","Learning example 0",""
"","","","","","html-button-response","58","159026","0.0-29.0","44","1","2025-01-25 17:11:55","af8d355d56820e421d246a7037deb6e6","149.88.24.230","Mozilla/5.0 (Windows NT 10.0; Win64; x64) AppleWebKit/537.36 (KHTML, like Gecko) Chrome/132.0.0.0 Safari/537.36","WebKit","Chrome","132.0.0.0","Windows","10.0","https://app.prolific.com/","en-US,en;q=0.9,de;q=0.8","679359525d6dac68ab9d189f","67949641171f97c04e14fb34","67951a3a6f75ca4cb41800f2","","null","<img  src='G_5.jpg' height='90'> <img  src='G_1.jpg' height='90'> <img src='G_9.jpg' height='90'> <img src='G_3.jpg' height='90'> <img src='G_7.jpg' height='90'>","null","Learning example 0",""
"","","","","","html-button-response","59","159433","0.0-30.0","44","1","2025-01-25 17:11:55","af8d355d56820e421d246a7037deb6e6","149.88.24.230","Mozilla/5.0 (Windows NT 10.0; Win64; x64) AppleWebKit/537.36 (KHTML, like Gecko) Chrome/132.0.0.0 Safari/537.36","WebKit","Chrome","132.0.0.0","Windows","10.0","https://app.prolific.com/","en-US,en;q=0.9,de;q=0.8","679359525d6dac68ab9d189f","67949641171f97c04e14fb34","67951a3a6f75ca4cb41800f2","","null","<img  src='G_5.jpg' height='90'> <img id='selected'  src='G_1.jpg' height='90'> <img src='G_9.jpg' height='90'> <img src='G_3.jpg' height='90'> <img src='G_7.jpg' height='90'>","null","Learning example 0",""
"","","","","","html-button-response","60","159750","0.0-31.0","44","1","2025-01-25 17:11:55","af8d355d56820e421d246a7037deb6e6","149.88.24.230","Mozilla/5.0 (Windows NT 10.0; Win64; x64) AppleWebKit/537.36 (KHTML, like Gecko) Chrome/132.0.0.0 Safari/537.36","WebKit","Chrome","132.0.0.0","Windows","10.0","https://app.prolific.com/","en-US,en;q=0.9,de;q=0.8","679359525d6dac68ab9d189f","67949641171f97c04e14fb34","67951a3a6f75ca4cb41800f2","","null","<img  src='G_5.jpg' height='90'> <img id='selected'  src='G_1.jpg' height='90'> <img id='selected' src='G_9.jpg' height='90'> <img src='G_3.jpg' height='90'> <img src='G_7.jpg' height='90'>","null","Learning example 0",""
"","","","","","html-button-response","61","160061","0.0-32.0","44","1","2025-01-25 17:11:55","af8d355d56820e421d246a7037deb6e6","149.88.24.230","Mozilla/5.0 (Windows NT 10.0; Win64; x64) AppleWebKit/537.36 (KHTML, like Gecko) Chrome/132.0.0.0 Safari/537.36","WebKit","Chrome","132.0.0.0","Windows","10.0","https://app.prolific.com/","en-US,en;q=0.9,de;q=0.8","679359525d6dac68ab9d189f","67949641171f97c04e14fb34","67951a3a6f75ca4cb41800f2","","null","<img  src='G_5.jpg' height='90'> <img id='selected'  src='G_1.jpg' height='90'> <img id='selected' src='G_9.jpg' height='90'> <img src='G_3.jpg' height='90'> <img src='G_7.jpg' height='90'>","null","Learning example 0",""
"","","","","","html-button-response","62","160790","0.0-33.0-0.0-0.0","44","1","2025-01-25 17:11:55","af8d355d56820e421d246a7037deb6e6","149.88.24.230","Mozilla/5.0 (Windows NT 10.0; Win64; x64) AppleWebKit/537.36 (KHTML, like Gecko) Chrome/132.0.0.0 Safari/537.36","WebKit","Chrome","132.0.0.0","Windows","10.0","https://app.prolific.com/","en-US,en;q=0.9,de;q=0.8","679359525d6dac68ab9d189f","67949641171f97c04e14fb34","67951a3a6f75ca4cb41800f2","","721","<img  src='G_5.jpg' height='90'> <img id='selected'  src='G_1.jpg' height='90'> <img id='selected' src='G_9.jpg' height='90'> <img src='G_3.jpg' height='90'> <img src='G_7.jpg' height='90'>","2","Learning example 0",""
"","","","","","html-button-response","63","162786","0.0-33.1-0.1-0.1","44","1","2025-01-25 17:11:55","af8d355d56820e421d246a7037deb6e6","149.88.24.230","Mozilla/5.0 (Windows NT 10.0; Win64; x64) AppleWebKit/537.36 (KHTML, like Gecko) Chrome/132.0.0.0 Safari/537.36","WebKit","Chrome","132.0.0.0","Windows","10.0","https://app.prolific.com/","en-US,en;q=0.9,de;q=0.8","679359525d6dac68ab9d189f","67949641171f97c04e14fb34","67951a3a6f75ca4cb41800f2","","1991","<img  src='G_5.jpg' height='90'> <img id='selected'  src='G_1.jpg' height='90'> <img id='selected' src='G_9.jpg' height='90'> <img src='G_3.jpg' height='90'> <img src='G_7.jpg' height='90'>","1","Learning example 0",""
"","","","","","html-button-response","64","162992","0.0-34.0","44","1","2025-01-25 17:11:55","af8d355d56820e421d246a7037deb6e6","149.88.24.230","Mozilla/5.0 (Windows NT 10.0; Win64; x64) AppleWebKit/537.36 (KHTML, like Gecko) Chrome/132.0.0.0 Safari/537.36","WebKit","Chrome","132.0.0.0","Windows","10.0","https://app.prolific.com/","en-US,en;q=0.9,de;q=0.8","679359525d6dac68ab9d189f","67949641171f97c04e14fb34","67951a3a6f75ca4cb41800f2","","null","<img  src='G_5.jpg' height='90'> <img   src='G_1.jpg' height='90'> <img  src='G_9.jpg' height='90'> <img src='G_3.jpg' height='90'> <img src='G_7.jpg' height='90'>","null","Learning example 0",""
"","","","","","html-button-response","65","163410","0.0-35.0","44","1","2025-01-25 17:11:55","af8d355d56820e421d246a7037deb6e6","149.88.24.230","Mozilla/5.0 (Windows NT 10.0; Win64; x64) AppleWebKit/537.36 (KHTML, like Gecko) Chrome/132.0.0.0 Safari/537.36","WebKit","Chrome","132.0.0.0","Windows","10.0","https://app.prolific.com/","en-US,en;q=0.9,de;q=0.8","679359525d6dac68ab9d189f","67949641171f97c04e14fb34","67951a3a6f75ca4cb41800f2","","null","<img  src='G_5.jpg' height='90'> <img   src='G_1.jpg' height='90'> <img id='selected'  src='G_9.jpg' height='90'> <img src='G_3.jpg' height='90'> <img src='G_7.jpg' height='90'>","null","Learning example 0",""
"","","","","","html-button-response","66","163716","0.0-36.0","44","1","2025-01-25 17:11:55","af8d355d56820e421d246a7037deb6e6","149.88.24.230","Mozilla/5.0 (Windows NT 10.0; Win64; x64) AppleWebKit/537.36 (KHTML, like Gecko) Chrome/132.0.0.0 Safari/537.36","WebKit","Chrome","132.0.0.0","Windows","10.0","https://app.prolific.com/","en-US,en;q=0.9,de;q=0.8","679359525d6dac68ab9d189f","67949641171f97c04e14fb34","67951a3a6f75ca4cb41800f2","","null","<img  src='G_5.jpg' height='90'> <img   src='G_1.jpg' height='90'> <img id='selected'  src='G_9.jpg' height='90'> <img id='selected' src='G_3.jpg' height='90'> <img src='G_7.jpg' height='90'>","null","Learning example 0",""
"","","","","","html-button-response","67","164026","0.0-37.0","44","1","2025-01-25 17:11:55","af8d355d56820e421d246a7037deb6e6","149.88.24.230","Mozilla/5.0 (Windows NT 10.0; Win64; x64) AppleWebKit/537.36 (KHTML, like Gecko) Chrome/132.0.0.0 Safari/537.36","WebKit","Chrome","132.0.0.0","Windows","10.0","https://app.prolific.com/","en-US,en;q=0.9,de;q=0.8","679359525d6dac68ab9d189f","67949641171f97c04e14fb34","67951a3a6f75ca4cb41800f2","","null","<img  src='G_5.jpg' height='90'> <img   src='G_1.jpg' height='90'> <img id='selected'  src='G_9.jpg' height='90'> <img id='selected' src='G_3.jpg' height='90'> <img src='G_7.jpg' height='90'>","null","Learning example 0",""
"","","","","","html-button-response","68","164413","0.0-38.0-0.0-0.0","44","1","2025-01-25 17:11:55","af8d355d56820e421d246a7037deb6e6","149.88.24.230","Mozilla/5.0 (Windows NT 10.0; Win64; x64) AppleWebKit/537.36 (KHTML, like Gecko) Chrome/132.0.0.0 Safari/537.36","WebKit","Chrome","132.0.0.0","Windows","10.0","https://app.prolific.com/","en-US,en;q=0.9,de;q=0.8","679359525d6dac68ab9d189f","67949641171f97c04e14fb34","67951a3a6f75ca4cb41800f2","","382","<img  src='G_5.jpg' height='90'> <img   src='G_1.jpg' height='90'> <img id='selected'  src='G_9.jpg' height='90'> <img id='selected' src='G_3.jpg' height='90'> <img src='G_7.jpg' height='90'>","2","Learning example 0",""
"","","","","","html-button-response","69","164713","0.0-38.1-0.1-0.1","44","1","2025-01-25 17:11:55","af8d355d56820e421d246a7037deb6e6","149.88.24.230","Mozilla/5.0 (Windows NT 10.0; Win64; x64) AppleWebKit/537.36 (KHTML, like Gecko) Chrome/132.0.0.0 Safari/537.36","WebKit","Chrome","132.0.0.0","Windows","10.0","https://app.prolific.com/","en-US,en;q=0.9,de;q=0.8","679359525d6dac68ab9d189f","67949641171f97c04e14fb34","67951a3a6f75ca4cb41800f2","","294","<img  src='G_5.jpg' height='90'> <img   src='G_1.jpg' height='90'> <img id='selected'  src='G_9.jpg' height='90'> <img id='selected' src='G_3.jpg' height='90'> <img src='G_7.jpg' height='90'>","3","Learning example 0",""
"","","","","","html-button-response","70","164926","0.0-39.0","44","1","2025-01-25 17:11:55","af8d355d56820e421d246a7037deb6e6","149.88.24.230","Mozilla/5.0 (Windows NT 10.0; Win64; x64) AppleWebKit/537.36 (KHTML, like Gecko) Chrome/132.0.0.0 Safari/537.36","WebKit","Chrome","132.0.0.0","Windows","10.0","https://app.prolific.com/","en-US,en;q=0.9,de;q=0.8","679359525d6dac68ab9d189f","67949641171f97c04e14fb34","67951a3a6f75ca4cb41800f2","","null","<img  src='G_5.jpg' height='90'> <img   src='G_1.jpg' height='90'> <img   src='G_9.jpg' height='90'> <img  src='G_3.jpg' height='90'> <img src='G_7.jpg' height='90'>","null","Learning example 0",""
"","","","","","html-button-response","71","165333","0.0-40.0","44","1","2025-01-25 17:11:55","af8d355d56820e421d246a7037deb6e6","149.88.24.230","Mozilla/5.0 (Windows NT 10.0; Win64; x64) AppleWebKit/537.36 (KHTML, like Gecko) Chrome/132.0.0.0 Safari/537.36","WebKit","Chrome","132.0.0.0","Windows","10.0","https://app.prolific.com/","en-US,en;q=0.9,de;q=0.8","679359525d6dac68ab9d189f","67949641171f97c04e14fb34","67951a3a6f75ca4cb41800f2","","null","<img  src='G_5.jpg' height='90'> <img   src='G_1.jpg' height='90'> <img   src='G_9.jpg' height='90'> <img id='selected'  src='G_3.jpg' height='90'> <img src='G_7.jpg' height='90'>","null","Learning example 0",""
"","","","","","html-button-response","72","165638","0.0-41.0","44","1","2025-01-25 17:11:55","af8d355d56820e421d246a7037deb6e6","149.88.24.230","Mozilla/5.0 (Windows NT 10.0; Win64; x64) AppleWebKit/537.36 (KHTML, like Gecko) Chrome/132.0.0.0 Safari/537.36","WebKit","Chrome","132.0.0.0","Windows","10.0","https://app.prolific.com/","en-US,en;q=0.9,de;q=0.8","679359525d6dac68ab9d189f","67949641171f97c04e14fb34","67951a3a6f75ca4cb41800f2","","null","<img  src='G_5.jpg' height='90'> <img   src='G_1.jpg' height='90'> <img   src='G_9.jpg' height='90'> <img id='selected'  src='G_3.jpg' height='90'> <img id='selected' src='G_7.jpg' height='90'>","null","Learning example 0",""
"","","","","","html-button-response","73","165920","0.0-42.0","44","1","2025-01-25 17:11:55","af8d355d56820e421d246a7037deb6e6","149.88.24.230","Mozilla/5.0 (Windows NT 10.0; Win64; x64) AppleWebKit/537.36 (KHTML, like Gecko) Chrome/132.0.0.0 Safari/537.36","WebKit","Chrome","132.0.0.0","Windows","10.0","https://app.prolific.com/","en-US,en;q=0.9,de;q=0.8","679359525d6dac68ab9d189f","67949641171f97c04e14fb34","67951a3a6f75ca4cb41800f2","","274","<img  src='G_5.jpg' height='90'> <img   src='G_1.jpg' height='90'> <img   src='G_9.jpg' height='90'> <img id='selected'  src='G_3.jpg' height='90'> <img id='selected' src='G_7.jpg' height='90'>","3","Learning example 0",""
"","","","","","html-button-response","74","166296","0.0-43.0-0.0-0.0","44","1","2025-01-25 17:11:55","af8d355d56820e421d246a7037deb6e6","149.88.24.230","Mozilla/5.0 (Windows NT 10.0; Win64; x64) AppleWebKit/537.36 (KHTML, like Gecko) Chrome/132.0.0.0 Safari/537.36","WebKit","Chrome","132.0.0.0","Windows","10.0","https://app.prolific.com/","en-US,en;q=0.9,de;q=0.8","679359525d6dac68ab9d189f","67949641171f97c04e14fb34","67951a3a6f75ca4cb41800f2","","369","<img  src='G_5.jpg' height='90'> <img   src='G_1.jpg' height='90'> <img   src='G_9.jpg' height='90'> <img id='selected'  src='G_3.jpg' height='90'> <img id='selected' src='G_7.jpg' height='90'>","4","Learning example 0",""
"","","","","","html-button-response","75","166506","0.0-44.0","44","1","2025-01-25 17:11:55","af8d355d56820e421d246a7037deb6e6","149.88.24.230","Mozilla/5.0 (Windows NT 10.0; Win64; x64) AppleWebKit/537.36 (KHTML, like Gecko) Chrome/132.0.0.0 Safari/537.36","WebKit","Chrome","132.0.0.0","Windows","10.0","https://app.prolific.com/","en-US,en;q=0.9,de;q=0.8","679359525d6dac68ab9d189f","67949641171f97c04e14fb34","67951a3a6f75ca4cb41800f2","","null","<img  src='G_5.jpg' height='90'> <img   src='G_1.jpg' height='90'> <img   src='G_9.jpg' height='90'> <img   src='G_3.jpg' height='90'> <img  src='G_7.jpg' height='90'>","null","Learning example 0",""
"","","","","","html-keyboard-response","76","173392","0.0-45.0","44","1","2025-01-25 17:11:55","af8d355d56820e421d246a7037deb6e6","149.88.24.230","Mozilla/5.0 (Windows NT 10.0; Win64; x64) AppleWebKit/537.36 (KHTML, like Gecko) Chrome/132.0.0.0 Safari/537.36","WebKit","Chrome","132.0.0.0","Windows","10.0","https://app.prolific.com/","en-US,en;q=0.9,de;q=0.8","679359525d6dac68ab9d189f","67949641171f97c04e14fb34","67951a3a6f75ca4cb41800f2","","6879","[""Final order was 1,2,3,4,5. The initial order was 2,1,3,4,5.<br>It took 1 swaps to sort it correctly with Omgne Sort. <br><br>Press Enter to continue.""]","enter","",""
"","","","","","html-keyboard-response","77","178348","0.0-46.0","44","1","2025-01-25 17:11:55","af8d355d56820e421d246a7037deb6e6","149.88.24.230","Mozilla/5.0 (Windows NT 10.0; Win64; x64) AppleWebKit/537.36 (KHTML, like Gecko) Chrome/132.0.0.0 Safari/537.36","WebKit","Chrome","132.0.0.0","Windows","10.0","https://app.prolific.com/","en-US,en;q=0.9,de;q=0.8","679359525d6dac68ab9d189f","67949641171f97c04e14fb34","67951a3a6f75ca4cb41800f2","","4952","[""Example 2<br><br>You will watch Omnge Sort in action. Try to identify any patterns in the comparisons made by this method. <br><br>Press Enter to continue.""]","enter","",""
"","","","","","html-keyboard-response","78","178862","0.0-47.0","44","1","2025-01-25 17:11:55","af8d355d56820e421d246a7037deb6e6","149.88.24.230","Mozilla/5.0 (Windows NT 10.0; Win64; x64) AppleWebKit/537.36 (KHTML, like Gecko) Chrome/132.0.0.0 Safari/537.36","WebKit","Chrome","132.0.0.0","Windows","10.0","https://app.prolific.com/","en-US,en;q=0.9,de;q=0.8","679359525d6dac68ab9d189f","67949641171f97c04e14fb34","67951a3a6f75ca4cb41800f2","","null","<img id='selected' src='G_7.jpg' height='90'> <img src='G_8.jpg' height='90'> <img src='G_4.jpg' height='90'> <img src='G_2.jpg' height='90'> <img src='G_3.jpg' height='90'> <img src='G_5.jpg' height='90'> <img src='G_1.jpg' height='90'> <img src='G_6.jpg' height='90'>","null","Animation1",""
"","","","","","html-keyboard-response","79","179383","0.0-48.0","44","1","2025-01-25 17:11:55","af8d355d56820e421d246a7037deb6e6","149.88.24.230","Mozilla/5.0 (Windows NT 10.0; Win64; x64) AppleWebKit/537.36 (KHTML, like Gecko) Chrome/132.0.0.0 Safari/537.36","WebKit","Chrome","132.0.0.0","Windows","10.0","https://app.prolific.com/","en-US,en;q=0.9,de;q=0.8","679359525d6dac68ab9d189f","67949641171f97c04e14fb34","67951a3a6f75ca4cb41800f2","","null","<img id='selected' src='G_7.jpg' height='90'> <img id='selected' src='G_8.jpg' height='90'> <img src='G_4.jpg' height='90'> <img src='G_2.jpg' height='90'> <img src='G_3.jpg' height='90'> <img src='G_5.jpg' height='90'> <img src='G_1.jpg' height='90'> <img src='G_6.jpg' height='90'>","null","Animation1",""
"","","","","","html-keyboard-response","80","179893","0.0-49.0","44","1","2025-01-25 17:11:55","af8d355d56820e421d246a7037deb6e6","149.88.24.230","Mozilla/5.0 (Windows NT 10.0; Win64; x64) AppleWebKit/537.36 (KHTML, like Gecko) Chrome/132.0.0.0 Safari/537.36","WebKit","Chrome","132.0.0.0","Windows","10.0","https://app.prolific.com/","en-US,en;q=0.9,de;q=0.8","679359525d6dac68ab9d189f","67949641171f97c04e14fb34","67951a3a6f75ca4cb41800f2","","null","<img id='selected' src='G_7.jpg' height='90'> <img id='selected' src='G_8.jpg' height='90'> <img src='G_4.jpg' height='90'> <img src='G_2.jpg' height='90'> <img src='G_3.jpg' height='90'> <img src='G_5.jpg' height='90'> <img src='G_1.jpg' height='90'> <img src='G_6.jpg' height='90'>","null","Animation1",""
"","","","","","html-keyboard-response","81","180206","0.0-50.0","44","1","2025-01-25 17:11:55","af8d355d56820e421d246a7037deb6e6","149.88.24.230","Mozilla/5.0 (Windows NT 10.0; Win64; x64) AppleWebKit/537.36 (KHTML, like Gecko) Chrome/132.0.0.0 Safari/537.36","WebKit","Chrome","132.0.0.0","Windows","10.0","https://app.prolific.com/","en-US,en;q=0.9,de;q=0.8","679359525d6dac68ab9d189f","67949641171f97c04e14fb34","67951a3a6f75ca4cb41800f2","","null","<img  src='G_7.jpg' height='90'> <img  src='G_8.jpg' height='90'> <img src='G_4.jpg' height='90'> <img src='G_2.jpg' height='90'> <img src='G_3.jpg' height='90'> <img src='G_5.jpg' height='90'> <img src='G_1.jpg' height='90'> <img src='G_6.jpg' height='90'>","null","Animation1",""
"","","","","","html-keyboard-response","82","180714","0.0-51.0","44","1","2025-01-25 17:11:55","af8d355d56820e421d246a7037deb6e6","149.88.24.230","Mozilla/5.0 (Windows NT 10.0; Win64; x64) AppleWebKit/537.36 (KHTML, like Gecko) Chrome/132.0.0.0 Safari/537.36","WebKit","Chrome","132.0.0.0","Windows","10.0","https://app.prolific.com/","en-US,en;q=0.9,de;q=0.8","679359525d6dac68ab9d189f","67949641171f97c04e14fb34","67951a3a6f75ca4cb41800f2","","null","<img  src='G_7.jpg' height='90'> <img id='selected'  src='G_8.jpg' height='90'> <img src='G_4.jpg' height='90'> <img src='G_2.jpg' height='90'> <img src='G_3.jpg' height='90'> <img src='G_5.jpg' height='90'> <img src='G_1.jpg' height='90'> <img src='G_6.jpg' height='90'>","null","Animation1",""
"","","","","","html-keyboard-response","83","181223","0.0-52.0","44","1","2025-01-25 17:11:55","af8d355d56820e421d246a7037deb6e6","149.88.24.230","Mozilla/5.0 (Windows NT 10.0; Win64; x64) AppleWebKit/537.36 (KHTML, like Gecko) Chrome/132.0.0.0 Safari/537.36","WebKit","Chrome","132.0.0.0","Windows","10.0","https://app.prolific.com/","en-US,en;q=0.9,de;q=0.8","679359525d6dac68ab9d189f","67949641171f97c04e14fb34","67951a3a6f75ca4cb41800f2","","null","<img  src='G_7.jpg' height='90'> <img id='selected'  src='G_8.jpg' height='90'> <img id='selected' src='G_4.jpg' height='90'> <img src='G_2.jpg' height='90'> <img src='G_3.jpg' height='90'> <img src='G_5.jpg' height='90'> <img src='G_1.jpg' height='90'> <img src='G_6.jpg' height='90'>","null","Animation1",""
"","","","","","html-keyboard-response","84","181736","0.0-53.0","44","1","2025-01-25 17:11:55","af8d355d56820e421d246a7037deb6e6","149.88.24.230","Mozilla/5.0 (Windows NT 10.0; Win64; x64) AppleWebKit/537.36 (KHTML, like Gecko) Chrome/132.0.0.0 Safari/537.36","WebKit","Chrome","132.0.0.0","Windows","10.0","https://app.prolific.com/","en-US,en;q=0.9,de;q=0.8","679359525d6dac68ab9d189f","67949641171f97c04e14fb34","67951a3a6f75ca4cb41800f2","","null","<img  src='G_7.jpg' height='90'> <img id='swapped' src='G_4.jpg' height='90'> <img id='swapped'  src='G_8.jpg' height='90'> <img src='G_2.jpg' height='90'> <img src='G_3.jpg' height='90'> <img src='G_5.jpg' height='90'> <img src='G_1.jpg' height='90'> <img src='G_6.jpg' height='90'>","null","Animation1",""
"","","","","","html-keyboard-response","85","182045","0.0-54.0","44","1","2025-01-25 17:11:55","af8d355d56820e421d246a7037deb6e6","149.88.24.230","Mozilla/5.0 (Windows NT 10.0; Win64; x64) AppleWebKit/537.36 (KHTML, like Gecko) Chrome/132.0.0.0 Safari/537.36","WebKit","Chrome","132.0.0.0","Windows","10.0","https://app.prolific.com/","en-US,en;q=0.9,de;q=0.8","679359525d6dac68ab9d189f","67949641171f97c04e14fb34","67951a3a6f75ca4cb41800f2","","null","<img  src='G_7.jpg' height='90'> <img  src='G_4.jpg' height='90'> <img   src='G_8.jpg' height='90'> <img src='G_2.jpg' height='90'> <img src='G_3.jpg' height='90'> <img src='G_5.jpg' height='90'> <img src='G_1.jpg' height='90'> <img src='G_6.jpg' height='90'>","null","Animation1",""
"","","","","","html-keyboard-response","86","182553","0.0-55.0","44","1","2025-01-25 17:11:55","af8d355d56820e421d246a7037deb6e6","149.88.24.230","Mozilla/5.0 (Windows NT 10.0; Win64; x64) AppleWebKit/537.36 (KHTML, like Gecko) Chrome/132.0.0.0 Safari/537.36","WebKit","Chrome","132.0.0.0","Windows","10.0","https://app.prolific.com/","en-US,en;q=0.9,de;q=0.8","679359525d6dac68ab9d189f","67949641171f97c04e14fb34","67951a3a6f75ca4cb41800f2","","null","<img id='selected'  src='G_7.jpg' height='90'> <img  src='G_4.jpg' height='90'> <img   src='G_8.jpg' height='90'> <img src='G_2.jpg' height='90'> <img src='G_3.jpg' height='90'> <img src='G_5.jpg' height='90'> <img src='G_1.jpg' height='90'> <img src='G_6.jpg' height='90'>","null","Animation1",""
"","","","","","html-keyboard-response","87","183062","0.0-56.0","44","1","2025-01-25 17:11:55","af8d355d56820e421d246a7037deb6e6","149.88.24.230","Mozilla/5.0 (Windows NT 10.0; Win64; x64) AppleWebKit/537.36 (KHTML, like Gecko) Chrome/132.0.0.0 Safari/537.36","WebKit","Chrome","132.0.0.0","Windows","10.0","https://app.prolific.com/","en-US,en;q=0.9,de;q=0.8","679359525d6dac68ab9d189f","67949641171f97c04e14fb34","67951a3a6f75ca4cb41800f2","","null","<img id='selected'  src='G_7.jpg' height='90'> <img id='selected'  src='G_4.jpg' height='90'> <img   src='G_8.jpg' height='90'> <img src='G_2.jpg' height='90'> <img src='G_3.jpg' height='90'> <img src='G_5.jpg' height='90'> <img src='G_1.jpg' height='90'> <img src='G_6.jpg' height='90'>","null","Animation1",""
"","","","","","html-keyboard-response","88","183574","0.0-57.0","44","1","2025-01-25 17:11:55","af8d355d56820e421d246a7037deb6e6","149.88.24.230","Mozilla/5.0 (Windows NT 10.0; Win64; x64) AppleWebKit/537.36 (KHTML, like Gecko) Chrome/132.0.0.0 Safari/537.36","WebKit","Chrome","132.0.0.0","Windows","10.0","https://app.prolific.com/","en-US,en;q=0.9,de;q=0.8","679359525d6dac68ab9d189f","67949641171f97c04e14fb34","67951a3a6f75ca4cb41800f2","","null","<img id='swapped'  src='G_4.jpg' height='90'> <img id='swapped'  src='G_7.jpg' height='90'> <img   src='G_8.jpg' height='90'> <img src='G_2.jpg' height='90'> <img src='G_3.jpg' height='90'> <img src='G_5.jpg' height='90'> <img src='G_1.jpg' height='90'> <img src='G_6.jpg' height='90'>","null","Animation1",""
"","","","","","html-keyboard-response","89","183882","0.0-58.0","44","1","2025-01-25 17:11:55","af8d355d56820e421d246a7037deb6e6","149.88.24.230","Mozilla/5.0 (Windows NT 10.0; Win64; x64) AppleWebKit/537.36 (KHTML, like Gecko) Chrome/132.0.0.0 Safari/537.36","WebKit","Chrome","132.0.0.0","Windows","10.0","https://app.prolific.com/","en-US,en;q=0.9,de;q=0.8","679359525d6dac68ab9d189f","67949641171f97c04e14fb34","67951a3a6f75ca4cb41800f2","","null","<img   src='G_4.jpg' height='90'> <img   src='G_7.jpg' height='90'> <img   src='G_8.jpg' height='90'> <img src='G_2.jpg' height='90'> <img src='G_3.jpg' height='90'> <img src='G_5.jpg' height='90'> <img src='G_1.jpg' height='90'> <img src='G_6.jpg' height='90'>","null","Animation1",""
"","","","","","html-keyboard-response","90","184393","0.0-59.0","44","1","2025-01-25 17:11:55","af8d355d56820e421d246a7037deb6e6","149.88.24.230","Mozilla/5.0 (Windows NT 10.0; Win64; x64) AppleWebKit/537.36 (KHTML, like Gecko) Chrome/132.0.0.0 Safari/537.36","WebKit","Chrome","132.0.0.0","Windows","10.0","https://app.prolific.com/","en-US,en;q=0.9,de;q=0.8","679359525d6dac68ab9d189f","67949641171f97c04e14fb34","67951a3a6f75ca4cb41800f2","","null","<img   src='G_4.jpg' height='90'> <img   src='G_7.jpg' height='90'> <img id='selected'   src='G_8.jpg' height='90'> <img src='G_2.jpg' height='90'> <img src='G_3.jpg' height='90'> <img src='G_5.jpg' height='90'> <img src='G_1.jpg' height='90'> <img src='G_6.jpg' height='90'>","null","Animation1",""
"","","","","","html-keyboard-response","91","184905","0.0-60.0","44","1","2025-01-25 17:11:55","af8d355d56820e421d246a7037deb6e6","149.88.24.230","Mozilla/5.0 (Windows NT 10.0; Win64; x64) AppleWebKit/537.36 (KHTML, like Gecko) Chrome/132.0.0.0 Safari/537.36","WebKit","Chrome","132.0.0.0","Windows","10.0","https://app.prolific.com/","en-US,en;q=0.9,de;q=0.8","679359525d6dac68ab9d189f","67949641171f97c04e14fb34","67951a3a6f75ca4cb41800f2","","null","<img   src='G_4.jpg' height='90'> <img   src='G_7.jpg' height='90'> <img id='selected'   src='G_8.jpg' height='90'> <img id='selected' src='G_2.jpg' height='90'> <img src='G_3.jpg' height='90'> <img src='G_5.jpg' height='90'> <img src='G_1.jpg' height='90'> <img src='G_6.jpg' height='90'>","null","Animation1",""
"","","","","","html-keyboard-response","92","185417","0.0-61.0","44","1","2025-01-25 17:11:55","af8d355d56820e421d246a7037deb6e6","149.88.24.230","Mozilla/5.0 (Windows NT 10.0; Win64; x64) AppleWebKit/537.36 (KHTML, like Gecko) Chrome/132.0.0.0 Safari/537.36","WebKit","Chrome","132.0.0.0","Windows","10.0","https://app.prolific.com/","en-US,en;q=0.9,de;q=0.8","679359525d6dac68ab9d189f","67949641171f97c04e14fb34","67951a3a6f75ca4cb41800f2","","null","<img   src='G_4.jpg' height='90'> <img   src='G_7.jpg' height='90'> <img id='swapped' src='G_2.jpg' height='90'> <img id='swapped'   src='G_8.jpg' height='90'> <img src='G_3.jpg' height='90'> <img src='G_5.jpg' height='90'> <img src='G_1.jpg' height='90'> <img src='G_6.jpg' height='90'>","null","Animation1",""
"","","","","","html-keyboard-response","93","185724","0.0-62.0","44","1","2025-01-25 17:11:55","af8d355d56820e421d246a7037deb6e6","149.88.24.230","Mozilla/5.0 (Windows NT 10.0; Win64; x64) AppleWebKit/537.36 (KHTML, like Gecko) Chrome/132.0.0.0 Safari/537.36","WebKit","Chrome","132.0.0.0","Windows","10.0","https://app.prolific.com/","en-US,en;q=0.9,de;q=0.8","679359525d6dac68ab9d189f","67949641171f97c04e14fb34","67951a3a6f75ca4cb41800f2","","null","<img   src='G_4.jpg' height='90'> <img   src='G_7.jpg' height='90'> <img  src='G_2.jpg' height='90'> <img    src='G_8.jpg' height='90'> <img src='G_3.jpg' height='90'> <img src='G_5.jpg' height='90'> <img src='G_1.jpg' height='90'> <img src='G_6.jpg' height='90'>","null","Animation1",""
"","","","","","html-keyboard-response","94","186234","0.0-63.0","44","1","2025-01-25 17:11:55","af8d355d56820e421d246a7037deb6e6","149.88.24.230","Mozilla/5.0 (Windows NT 10.0; Win64; x64) AppleWebKit/537.36 (KHTML, like Gecko) Chrome/132.0.0.0 Safari/537.36","WebKit","Chrome","132.0.0.0","Windows","10.0","https://app.prolific.com/","en-US,en;q=0.9,de;q=0.8","679359525d6dac68ab9d189f","67949641171f97c04e14fb34","67951a3a6f75ca4cb41800f2","","null","<img   src='G_4.jpg' height='90'> <img id='selected'   src='G_7.jpg' height='90'> <img  src='G_2.jpg' height='90'> <img    src='G_8.jpg' height='90'> <img src='G_3.jpg' height='90'> <img src='G_5.jpg' height='90'> <img src='G_1.jpg' height='90'> <img src='G_6.jpg' height='90'>","null","Animation1",""
"","","","","","html-keyboard-response","95","186742","0.0-64.0","44","1","2025-01-25 17:11:55","af8d355d56820e421d246a7037deb6e6","149.88.24.230","Mozilla/5.0 (Windows NT 10.0; Win64; x64) AppleWebKit/537.36 (KHTML, like Gecko) Chrome/132.0.0.0 Safari/537.36","WebKit","Chrome","132.0.0.0","Windows","10.0","https://app.prolific.com/","en-US,en;q=0.9,de;q=0.8","679359525d6dac68ab9d189f","67949641171f97c04e14fb34","67951a3a6f75ca4cb41800f2","","null","<img   src='G_4.jpg' height='90'> <img id='selected'   src='G_7.jpg' height='90'> <img id='selected'  src='G_2.jpg' height='90'> <img    src='G_8.jpg' height='90'> <img src='G_3.jpg' height='90'> <img src='G_5.jpg' height='90'> <img src='G_1.jpg' height='90'> <img src='G_6.jpg' height='90'>","null","Animation1",""
"","","","","","html-keyboard-response","96","187252","0.0-65.0","44","1","2025-01-25 17:11:55","af8d355d56820e421d246a7037deb6e6","149.88.24.230","Mozilla/5.0 (Windows NT 10.0; Win64; x64) AppleWebKit/537.36 (KHTML, like Gecko) Chrome/132.0.0.0 Safari/537.36","WebKit","Chrome","132.0.0.0","Windows","10.0","https://app.prolific.com/","en-US,en;q=0.9,de;q=0.8","679359525d6dac68ab9d189f","67949641171f97c04e14fb34","67951a3a6f75ca4cb41800f2","","null","<img   src='G_4.jpg' height='90'> <img id='swapped'  src='G_2.jpg' height='90'> <img id='swapped'   src='G_7.jpg' height='90'> <img    src='G_8.jpg' height='90'> <img src='G_3.jpg' height='90'> <img src='G_5.jpg' height='90'> <img src='G_1.jpg' height='90'> <img src='G_6.jpg' height='90'>","null","Animation1",""
"","","","","","html-keyboard-response","97","187576","0.0-66.0","44","1","2025-01-25 17:11:55","af8d355d56820e421d246a7037deb6e6","149.88.24.230","Mozilla/5.0 (Windows NT 10.0; Win64; x64) AppleWebKit/537.36 (KHTML, like Gecko) Chrome/132.0.0.0 Safari/537.36","WebKit","Chrome","132.0.0.0","Windows","10.0","https://app.prolific.com/","en-US,en;q=0.9,de;q=0.8","679359525d6dac68ab9d189f","67949641171f97c04e14fb34","67951a3a6f75ca4cb41800f2","","null","<img   src='G_4.jpg' height='90'> <img   src='G_2.jpg' height='90'> <img    src='G_7.jpg' height='90'> <img    src='G_8.jpg' height='90'> <img src='G_3.jpg' height='90'> <img src='G_5.jpg' height='90'> <img src='G_1.jpg' height='90'> <img src='G_6.jpg' height='90'>","null","Animation1",""
"","","","","","html-keyboard-response","98","188088","0.0-67.0","44","1","2025-01-25 17:11:55","af8d355d56820e421d246a7037deb6e6","149.88.24.230","Mozilla/5.0 (Windows NT 10.0; Win64; x64) AppleWebKit/537.36 (KHTML, like Gecko) Chrome/132.0.0.0 Safari/537.36","WebKit","Chrome","132.0.0.0","Windows","10.0","https://app.prolific.com/","en-US,en;q=0.9,de;q=0.8","679359525d6dac68ab9d189f","67949641171f97c04e14fb34","67951a3a6f75ca4cb41800f2","","null","<img id='selected'   src='G_4.jpg' height='90'> <img   src='G_2.jpg' height='90'> <img    src='G_7.jpg' height='90'> <img    src='G_8.jpg' height='90'> <img src='G_3.jpg' height='90'> <img src='G_5.jpg' height='90'> <img src='G_1.jpg' height='90'> <img src='G_6.jpg' height='90'>","null","Animation1",""
"","","","","","html-keyboard-response","99","188601","0.0-68.0","44","1","2025-01-25 17:11:55","af8d355d56820e421d246a7037deb6e6","149.88.24.230","Mozilla/5.0 (Windows NT 10.0; Win64; x64) AppleWebKit/537.36 (KHTML, like Gecko) Chrome/132.0.0.0 Safari/537.36","WebKit","Chrome","132.0.0.0","Windows","10.0","https://app.prolific.com/","en-US,en;q=0.9,de;q=0.8","679359525d6dac68ab9d189f","67949641171f97c04e14fb34","67951a3a6f75ca4cb41800f2","","null","<img id='selected'   src='G_4.jpg' height='90'> <img id='selected'   src='G_2.jpg' height='90'> <img    src='G_7.jpg' height='90'> <img    src='G_8.jpg' height='90'> <img src='G_3.jpg' height='90'> <img src='G_5.jpg' height='90'> <img src='G_1.jpg' height='90'> <img src='G_6.jpg' height='90'>","null","Animation1",""
"","","","","","html-keyboard-response","100","189112","0.0-69.0","44","1","2025-01-25 17:11:55","af8d355d56820e421d246a7037deb6e6","149.88.24.230","Mozilla/5.0 (Windows NT 10.0; Win64; x64) AppleWebKit/537.36 (KHTML, like Gecko) Chrome/132.0.0.0 Safari/537.36","WebKit","Chrome","132.0.0.0","Windows","10.0","https://app.prolific.com/","en-US,en;q=0.9,de;q=0.8","679359525d6dac68ab9d189f","67949641171f97c04e14fb34","67951a3a6f75ca4cb41800f2","","null","<img id='swapped'   src='G_2.jpg' height='90'> <img id='swapped'   src='G_4.jpg' height='90'> <img    src='G_7.jpg' height='90'> <img    src='G_8.jpg' height='90'> <img src='G_3.jpg' height='90'> <img src='G_5.jpg' height='90'> <img src='G_1.jpg' height='90'> <img src='G_6.jpg' height='90'>","null","Animation1",""
"","","","","","html-keyboard-response","101","189423","0.0-70.0","44","1","2025-01-25 17:11:55","af8d355d56820e421d246a7037deb6e6","149.88.24.230","Mozilla/5.0 (Windows NT 10.0; Win64; x64) AppleWebKit/537.36 (KHTML, like Gecko) Chrome/132.0.0.0 Safari/537.36","WebKit","Chrome","132.0.0.0","Windows","10.0","https://app.prolific.com/","en-US,en;q=0.9,de;q=0.8","679359525d6dac68ab9d189f","67949641171f97c04e14fb34","67951a3a6f75ca4cb41800f2","","null","<img    src='G_2.jpg' height='90'> <img    src='G_4.jpg' height='90'> <img    src='G_7.jpg' height='90'> <img    src='G_8.jpg' height='90'> <img src='G_3.jpg' height='90'> <img src='G_5.jpg' height='90'> <img src='G_1.jpg' height='90'> <img src='G_6.jpg' height='90'>","null","Animation1",""
"","","","","","html-keyboard-response","102","189932","0.0-71.0","44","1","2025-01-25 17:11:55","af8d355d56820e421d246a7037deb6e6","149.88.24.230","Mozilla/5.0 (Windows NT 10.0; Win64; x64) AppleWebKit/537.36 (KHTML, like Gecko) Chrome/132.0.0.0 Safari/537.36","WebKit","Chrome","132.0.0.0","Windows","10.0","https://app.prolific.com/","en-US,en;q=0.9,de;q=0.8","679359525d6dac68ab9d189f","67949641171f97c04e14fb34","67951a3a6f75ca4cb41800f2","","null","<img    src='G_2.jpg' height='90'> <img    src='G_4.jpg' height='90'> <img    src='G_7.jpg' height='90'> <img id='selected'    src='G_8.jpg' height='90'> <img src='G_3.jpg' height='90'> <img src='G_5.jpg' height='90'> <img src='G_1.jpg' height='90'> <img src='G_6.jpg' height='90'>","null","Animation1",""
"","","","","","html-keyboard-response","103","190449","0.0-72.0","44","1","2025-01-25 17:11:55","af8d355d56820e421d246a7037deb6e6","149.88.24.230","Mozilla/5.0 (Windows NT 10.0; Win64; x64) AppleWebKit/537.36 (KHTML, like Gecko) Chrome/132.0.0.0 Safari/537.36","WebKit","Chrome","132.0.0.0","Windows","10.0","https://app.prolific.com/","en-US,en;q=0.9,de;q=0.8","679359525d6dac68ab9d189f","67949641171f97c04e14fb34","67951a3a6f75ca4cb41800f2","","null","<img    src='G_2.jpg' height='90'> <img    src='G_4.jpg' height='90'> <img    src='G_7.jpg' height='90'> <img id='selected'    src='G_8.jpg' height='90'> <img id='selected' src='G_3.jpg' height='90'> <img src='G_5.jpg' height='90'> <img src='G_1.jpg' height='90'> <img src='G_6.jpg' height='90'>","null","Animation1",""
"","","","","","html-keyboard-response","104","190964","0.0-73.0","44","1","2025-01-25 17:11:55","af8d355d56820e421d246a7037deb6e6","149.88.24.230","Mozilla/5.0 (Windows NT 10.0; Win64; x64) AppleWebKit/537.36 (KHTML, like Gecko) Chrome/132.0.0.0 Safari/537.36","WebKit","Chrome","132.0.0.0","Windows","10.0","https://app.prolific.com/","en-US,en;q=0.9,de;q=0.8","679359525d6dac68ab9d189f","67949641171f97c04e14fb34","67951a3a6f75ca4cb41800f2","","null","<img    src='G_2.jpg' height='90'> <img    src='G_4.jpg' height='90'> <img    src='G_7.jpg' height='90'> <img id='swapped' src='G_3.jpg' height='90'> <img id='swapped'    src='G_8.jpg' height='90'> <img src='G_5.jpg' height='90'> <img src='G_1.jpg' height='90'> <img src='G_6.jpg' height='90'>","null","Animation1",""
"","","","","","html-keyboard-response","105","191274","0.0-74.0","44","1","2025-01-25 17:11:55","af8d355d56820e421d246a7037deb6e6","149.88.24.230","Mozilla/5.0 (Windows NT 10.0; Win64; x64) AppleWebKit/537.36 (KHTML, like Gecko) Chrome/132.0.0.0 Safari/537.36","WebKit","Chrome","132.0.0.0","Windows","10.0","https://app.prolific.com/","en-US,en;q=0.9,de;q=0.8","679359525d6dac68ab9d189f","67949641171f97c04e14fb34","67951a3a6f75ca4cb41800f2","","null","<img    src='G_2.jpg' height='90'> <img    src='G_4.jpg' height='90'> <img    src='G_7.jpg' height='90'> <img  src='G_3.jpg' height='90'> <img     src='G_8.jpg' height='90'> <img src='G_5.jpg' height='90'> <img src='G_1.jpg' height='90'> <img src='G_6.jpg' height='90'>","null","Animation1",""
"","","","","","html-keyboard-response","106","191782","0.0-75.0","44","1","2025-01-25 17:11:55","af8d355d56820e421d246a7037deb6e6","149.88.24.230","Mozilla/5.0 (Windows NT 10.0; Win64; x64) AppleWebKit/537.36 (KHTML, like Gecko) Chrome/132.0.0.0 Safari/537.36","WebKit","Chrome","132.0.0.0","Windows","10.0","https://app.prolific.com/","en-US,en;q=0.9,de;q=0.8","679359525d6dac68ab9d189f","67949641171f97c04e14fb34","67951a3a6f75ca4cb41800f2","","null","<img    src='G_2.jpg' height='90'> <img    src='G_4.jpg' height='90'> <img id='selected'    src='G_7.jpg' height='90'> <img  src='G_3.jpg' height='90'> <img     src='G_8.jpg' height='90'> <img src='G_5.jpg' height='90'> <img src='G_1.jpg' height='90'> <img src='G_6.jpg' height='90'>","null","Animation1",""
"","","","","","html-keyboard-response","107","192291","0.0-76.0","44","1","2025-01-25 17:11:55","af8d355d56820e421d246a7037deb6e6","149.88.24.230","Mozilla/5.0 (Windows NT 10.0; Win64; x64) AppleWebKit/537.36 (KHTML, like Gecko) Chrome/132.0.0.0 Safari/537.36","WebKit","Chrome","132.0.0.0","Windows","10.0","https://app.prolific.com/","en-US,en;q=0.9,de;q=0.8","679359525d6dac68ab9d189f","67949641171f97c04e14fb34","67951a3a6f75ca4cb41800f2","","null","<img    src='G_2.jpg' height='90'> <img    src='G_4.jpg' height='90'> <img id='selected'    src='G_7.jpg' height='90'> <img id='selected'  src='G_3.jpg' height='90'> <img     src='G_8.jpg' height='90'> <img src='G_5.jpg' height='90'> <img src='G_1.jpg' height='90'> <img src='G_6.jpg' height='90'>","null","Animation1",""
"","","","","","html-keyboard-response","108","192805","0.0-77.0","44","1","2025-01-25 17:11:55","af8d355d56820e421d246a7037deb6e6","149.88.24.230","Mozilla/5.0 (Windows NT 10.0; Win64; x64) AppleWebKit/537.36 (KHTML, like Gecko) Chrome/132.0.0.0 Safari/537.36","WebKit","Chrome","132.0.0.0","Windows","10.0","https://app.prolific.com/","en-US,en;q=0.9,de;q=0.8","679359525d6dac68ab9d189f","67949641171f97c04e14fb34","67951a3a6f75ca4cb41800f2","","null","<img    src='G_2.jpg' height='90'> <img    src='G_4.jpg' height='90'> <img id='swapped'  src='G_3.jpg' height='90'> <img id='swapped'    src='G_7.jpg' height='90'> <img     src='G_8.jpg' height='90'> <img src='G_5.jpg' height='90'> <img src='G_1.jpg' height='90'> <img src='G_6.jpg' height='90'>","null","Animation1",""
"","","","","","html-keyboard-response","109","193117","0.0-78.0","44","1","2025-01-25 17:11:55","af8d355d56820e421d246a7037deb6e6","149.88.24.230","Mozilla/5.0 (Windows NT 10.0; Win64; x64) AppleWebKit/537.36 (KHTML, like Gecko) Chrome/132.0.0.0 Safari/537.36","WebKit","Chrome","132.0.0.0","Windows","10.0","https://app.prolific.com/","en-US,en;q=0.9,de;q=0.8","679359525d6dac68ab9d189f","67949641171f97c04e14fb34","67951a3a6f75ca4cb41800f2","","null","<img    src='G_2.jpg' height='90'> <img    src='G_4.jpg' height='90'> <img   src='G_3.jpg' height='90'> <img     src='G_7.jpg' height='90'> <img     src='G_8.jpg' height='90'> <img src='G_5.jpg' height='90'> <img src='G_1.jpg' height='90'> <img src='G_6.jpg' height='90'>","null","Animation1",""
"","","","","","html-keyboard-response","110","193630","0.0-79.0","44","1","2025-01-25 17:11:55","af8d355d56820e421d246a7037deb6e6","149.88.24.230","Mozilla/5.0 (Windows NT 10.0; Win64; x64) AppleWebKit/537.36 (KHTML, like Gecko) Chrome/132.0.0.0 Safari/537.36","WebKit","Chrome","132.0.0.0","Windows","10.0","https://app.prolific.com/","en-US,en;q=0.9,de;q=0.8","679359525d6dac68ab9d189f","67949641171f97c04e14fb34","67951a3a6f75ca4cb41800f2","","null","<img    src='G_2.jpg' height='90'> <img id='selected'    src='G_4.jpg' height='90'> <img   src='G_3.jpg' height='90'> <img     src='G_7.jpg' height='90'> <img     src='G_8.jpg' height='90'> <img src='G_5.jpg' height='90'> <img src='G_1.jpg' height='90'> <img src='G_6.jpg' height='90'>","null","Animation1",""
"","","","","","html-keyboard-response","111","194141","0.0-80.0","44","1","2025-01-25 17:11:55","af8d355d56820e421d246a7037deb6e6","149.88.24.230","Mozilla/5.0 (Windows NT 10.0; Win64; x64) AppleWebKit/537.36 (KHTML, like Gecko) Chrome/132.0.0.0 Safari/537.36","WebKit","Chrome","132.0.0.0","Windows","10.0","https://app.prolific.com/","en-US,en;q=0.9,de;q=0.8","679359525d6dac68ab9d189f","67949641171f97c04e14fb34","67951a3a6f75ca4cb41800f2","","null","<img    src='G_2.jpg' height='90'> <img id='selected'    src='G_4.jpg' height='90'> <img id='selected'   src='G_3.jpg' height='90'> <img     src='G_7.jpg' height='90'> <img     src='G_8.jpg' height='90'> <img src='G_5.jpg' height='90'> <img src='G_1.jpg' height='90'> <img src='G_6.jpg' height='90'>","null","Animation1",""
"","","","","","html-keyboard-response","112","194657","0.0-81.0","44","1","2025-01-25 17:11:55","af8d355d56820e421d246a7037deb6e6","149.88.24.230","Mozilla/5.0 (Windows NT 10.0; Win64; x64) AppleWebKit/537.36 (KHTML, like Gecko) Chrome/132.0.0.0 Safari/537.36","WebKit","Chrome","132.0.0.0","Windows","10.0","https://app.prolific.com/","en-US,en;q=0.9,de;q=0.8","679359525d6dac68ab9d189f","67949641171f97c04e14fb34","67951a3a6f75ca4cb41800f2","","null","<img    src='G_2.jpg' height='90'> <img id='swapped'   src='G_3.jpg' height='90'> <img id='swapped'    src='G_4.jpg' height='90'> <img     src='G_7.jpg' height='90'> <img     src='G_8.jpg' height='90'> <img src='G_5.jpg' height='90'> <img src='G_1.jpg' height='90'> <img src='G_6.jpg' height='90'>","null","Animation1",""
"","","","","","html-keyboard-response","113","194965","0.0-82.0","44","1","2025-01-25 17:11:55","af8d355d56820e421d246a7037deb6e6","149.88.24.230","Mozilla/5.0 (Windows NT 10.0; Win64; x64) AppleWebKit/537.36 (KHTML, like Gecko) Chrome/132.0.0.0 Safari/537.36","WebKit","Chrome","132.0.0.0","Windows","10.0","https://app.prolific.com/","en-US,en;q=0.9,de;q=0.8","679359525d6dac68ab9d189f","67949641171f97c04e14fb34","67951a3a6f75ca4cb41800f2","","null","<img    src='G_2.jpg' height='90'> <img    src='G_3.jpg' height='90'> <img     src='G_4.jpg' height='90'> <img     src='G_7.jpg' height='90'> <img     src='G_8.jpg' height='90'> <img src='G_5.jpg' height='90'> <img src='G_1.jpg' height='90'> <img src='G_6.jpg' height='90'>","null","Animation1",""
"","","","","","html-keyboard-response","114","195491","0.0-83.0","44","1","2025-01-25 17:11:55","af8d355d56820e421d246a7037deb6e6","149.88.24.230","Mozilla/5.0 (Windows NT 10.0; Win64; x64) AppleWebKit/537.36 (KHTML, like Gecko) Chrome/132.0.0.0 Safari/537.36","WebKit","Chrome","132.0.0.0","Windows","10.0","https://app.prolific.com/","en-US,en;q=0.9,de;q=0.8","679359525d6dac68ab9d189f","67949641171f97c04e14fb34","67951a3a6f75ca4cb41800f2","","null","<img id='selected'    src='G_2.jpg' height='90'> <img    src='G_3.jpg' height='90'> <img     src='G_4.jpg' height='90'> <img     src='G_7.jpg' height='90'> <img     src='G_8.jpg' height='90'> <img src='G_5.jpg' height='90'> <img src='G_1.jpg' height='90'> <img src='G_6.jpg' height='90'>","null","Animation1",""
"","","","","","html-keyboard-response","115","196014","0.0-84.0","44","1","2025-01-25 17:11:55","af8d355d56820e421d246a7037deb6e6","149.88.24.230","Mozilla/5.0 (Windows NT 10.0; Win64; x64) AppleWebKit/537.36 (KHTML, like Gecko) Chrome/132.0.0.0 Safari/537.36","WebKit","Chrome","132.0.0.0","Windows","10.0","https://app.prolific.com/","en-US,en;q=0.9,de;q=0.8","679359525d6dac68ab9d189f","67949641171f97c04e14fb34","67951a3a6f75ca4cb41800f2","","null","<img id='selected'    src='G_2.jpg' height='90'> <img id='selected'    src='G_3.jpg' height='90'> <img     src='G_4.jpg' height='90'> <img     src='G_7.jpg' height='90'> <img     src='G_8.jpg' height='90'> <img src='G_5.jpg' height='90'> <img src='G_1.jpg' height='90'> <img src='G_6.jpg' height='90'>","null","Animation1",""
"","","","","","html-keyboard-response","116","196539","0.0-85.0","44","1","2025-01-25 17:11:55","af8d355d56820e421d246a7037deb6e6","149.88.24.230","Mozilla/5.0 (Windows NT 10.0; Win64; x64) AppleWebKit/537.36 (KHTML, like Gecko) Chrome/132.0.0.0 Safari/537.36","WebKit","Chrome","132.0.0.0","Windows","10.0","https://app.prolific.com/","en-US,en;q=0.9,de;q=0.8","679359525d6dac68ab9d189f","67949641171f97c04e14fb34","67951a3a6f75ca4cb41800f2","","null","<img id='selected'    src='G_2.jpg' height='90'> <img id='selected'    src='G_3.jpg' height='90'> <img     src='G_4.jpg' height='90'> <img     src='G_7.jpg' height='90'> <img     src='G_8.jpg' height='90'> <img src='G_5.jpg' height='90'> <img src='G_1.jpg' height='90'> <img src='G_6.jpg' height='90'>","null","Animation1",""
"","","","","","html-keyboard-response","117","196864","0.0-86.0","44","1","2025-01-25 17:11:55","af8d355d56820e421d246a7037deb6e6","149.88.24.230","Mozilla/5.0 (Windows NT 10.0; Win64; x64) AppleWebKit/537.36 (KHTML, like Gecko) Chrome/132.0.0.0 Safari/537.36","WebKit","Chrome","132.0.0.0","Windows","10.0","https://app.prolific.com/","en-US,en;q=0.9,de;q=0.8","679359525d6dac68ab9d189f","67949641171f97c04e14fb34","67951a3a6f75ca4cb41800f2","","null","<img     src='G_2.jpg' height='90'> <img     src='G_3.jpg' height='90'> <img     src='G_4.jpg' height='90'> <img     src='G_7.jpg' height='90'> <img     src='G_8.jpg' height='90'> <img src='G_5.jpg' height='90'> <img src='G_1.jpg' height='90'> <img src='G_6.jpg' height='90'>","null","Animation1",""
"","","","","","html-keyboard-response","118","197376","0.0-87.0","44","1","2025-01-25 17:11:55","af8d355d56820e421d246a7037deb6e6","149.88.24.230","Mozilla/5.0 (Windows NT 10.0; Win64; x64) AppleWebKit/537.36 (KHTML, like Gecko) Chrome/132.0.0.0 Safari/537.36","WebKit","Chrome","132.0.0.0","Windows","10.0","https://app.prolific.com/","en-US,en;q=0.9,de;q=0.8","679359525d6dac68ab9d189f","67949641171f97c04e14fb34","67951a3a6f75ca4cb41800f2","","null","<img     src='G_2.jpg' height='90'> <img     src='G_3.jpg' height='90'> <img     src='G_4.jpg' height='90'> <img     src='G_7.jpg' height='90'> <img id='selected'     src='G_8.jpg' height='90'> <img src='G_5.jpg' height='90'> <img src='G_1.jpg' height='90'> <img src='G_6.jpg' height='90'>","null","Animation1",""
"","","","","","html-keyboard-response","119","197904","0.0-88.0","44","1","2025-01-25 17:11:55","af8d355d56820e421d246a7037deb6e6","149.88.24.230","Mozilla/5.0 (Windows NT 10.0; Win64; x64) AppleWebKit/537.36 (KHTML, like Gecko) Chrome/132.0.0.0 Safari/537.36","WebKit","Chrome","132.0.0.0","Windows","10.0","https://app.prolific.com/","en-US,en;q=0.9,de;q=0.8","679359525d6dac68ab9d189f","67949641171f97c04e14fb34","67951a3a6f75ca4cb41800f2","","null","<img     src='G_2.jpg' height='90'> <img     src='G_3.jpg' height='90'> <img     src='G_4.jpg' height='90'> <img     src='G_7.jpg' height='90'> <img id='selected'     src='G_8.jpg' height='90'> <img id='selected' src='G_5.jpg' height='90'> <img src='G_1.jpg' height='90'> <img src='G_6.jpg' height='90'>","null","Animation1",""
"","","","","","html-keyboard-response","120","198416","0.0-89.0","44","1","2025-01-25 17:11:55","af8d355d56820e421d246a7037deb6e6","149.88.24.230","Mozilla/5.0 (Windows NT 10.0; Win64; x64) AppleWebKit/537.36 (KHTML, like Gecko) Chrome/132.0.0.0 Safari/537.36","WebKit","Chrome","132.0.0.0","Windows","10.0","https://app.prolific.com/","en-US,en;q=0.9,de;q=0.8","679359525d6dac68ab9d189f","67949641171f97c04e14fb34","67951a3a6f75ca4cb41800f2","","null","<img     src='G_2.jpg' height='90'> <img     src='G_3.jpg' height='90'> <img     src='G_4.jpg' height='90'> <img     src='G_7.jpg' height='90'> <img id='swapped' src='G_5.jpg' height='90'> <img id='swapped'     src='G_8.jpg' height='90'> <img src='G_1.jpg' height='90'> <img src='G_6.jpg' height='90'>","null","Animation1",""
"","","","","","html-keyboard-response","121","198726","0.0-90.0","44","1","2025-01-25 17:11:55","af8d355d56820e421d246a7037deb6e6","149.88.24.230","Mozilla/5.0 (Windows NT 10.0; Win64; x64) AppleWebKit/537.36 (KHTML, like Gecko) Chrome/132.0.0.0 Safari/537.36","WebKit","Chrome","132.0.0.0","Windows","10.0","https://app.prolific.com/","en-US,en;q=0.9,de;q=0.8","679359525d6dac68ab9d189f","67949641171f97c04e14fb34","67951a3a6f75ca4cb41800f2","","null","<img     src='G_2.jpg' height='90'> <img     src='G_3.jpg' height='90'> <img     src='G_4.jpg' height='90'> <img     src='G_7.jpg' height='90'> <img  src='G_5.jpg' height='90'> <img      src='G_8.jpg' height='90'> <img src='G_1.jpg' height='90'> <img src='G_6.jpg' height='90'>","null","Animation1",""
"","","","","","html-keyboard-response","122","199248","0.0-91.0","44","1","2025-01-25 17:11:55","af8d355d56820e421d246a7037deb6e6","149.88.24.230","Mozilla/5.0 (Windows NT 10.0; Win64; x64) AppleWebKit/537.36 (KHTML, like Gecko) Chrome/132.0.0.0 Safari/537.36","WebKit","Chrome","132.0.0.0","Windows","10.0","https://app.prolific.com/","en-US,en;q=0.9,de;q=0.8","679359525d6dac68ab9d189f","67949641171f97c04e14fb34","67951a3a6f75ca4cb41800f2","","null","<img     src='G_2.jpg' height='90'> <img     src='G_3.jpg' height='90'> <img     src='G_4.jpg' height='90'> <img id='selected'     src='G_7.jpg' height='90'> <img  src='G_5.jpg' height='90'> <img      src='G_8.jpg' height='90'> <img src='G_1.jpg' height='90'> <img src='G_6.jpg' height='90'>","null","Animation1",""
"","","","","","html-keyboard-response","123","199770","0.0-92.0","44","1","2025-01-25 17:11:55","af8d355d56820e421d246a7037deb6e6","149.88.24.230","Mozilla/5.0 (Windows NT 10.0; Win64; x64) AppleWebKit/537.36 (KHTML, like Gecko) Chrome/132.0.0.0 Safari/537.36","WebKit","Chrome","132.0.0.0","Windows","10.0","https://app.prolific.com/","en-US,en;q=0.9,de;q=0.8","679359525d6dac68ab9d189f","67949641171f97c04e14fb34","67951a3a6f75ca4cb41800f2","","null","<img     src='G_2.jpg' height='90'> <img     src='G_3.jpg' height='90'> <img     src='G_4.jpg' height='90'> <img id='selected'     src='G_7.jpg' height='90'> <img id='selected'  src='G_5.jpg' height='90'> <img      src='G_8.jpg' height='90'> <img src='G_1.jpg' height='90'> <img src='G_6.jpg' height='90'>","null","Animation1",""
"","","","","","html-keyboard-response","124","200296","0.0-93.0","44","1","2025-01-25 17:11:55","af8d355d56820e421d246a7037deb6e6","149.88.24.230","Mozilla/5.0 (Windows NT 10.0; Win64; x64) AppleWebKit/537.36 (KHTML, like Gecko) Chrome/132.0.0.0 Safari/537.36","WebKit","Chrome","132.0.0.0","Windows","10.0","https://app.prolific.com/","en-US,en;q=0.9,de;q=0.8","679359525d6dac68ab9d189f","67949641171f97c04e14fb34","67951a3a6f75ca4cb41800f2","","null","<img     src='G_2.jpg' height='90'> <img     src='G_3.jpg' height='90'> <img     src='G_4.jpg' height='90'> <img id='selected'     src='G_7.jpg' height='90'> <img id='selected'  src='G_5.jpg' height='90'> <img      src='G_8.jpg' height='90'> <img src='G_1.jpg' height='90'> <img src='G_6.jpg' height='90'>","null","Animation1",""
"","","","","","html-keyboard-response","125","200606","0.0-94.0","44","1","2025-01-25 17:11:55","af8d355d56820e421d246a7037deb6e6","149.88.24.230","Mozilla/5.0 (Windows NT 10.0; Win64; x64) AppleWebKit/537.36 (KHTML, like Gecko) Chrome/132.0.0.0 Safari/537.36","WebKit","Chrome","132.0.0.0","Windows","10.0","https://app.prolific.com/","en-US,en;q=0.9,de;q=0.8","679359525d6dac68ab9d189f","67949641171f97c04e14fb34","67951a3a6f75ca4cb41800f2","","null","<img     src='G_2.jpg' height='90'> <img     src='G_3.jpg' height='90'> <img     src='G_4.jpg' height='90'> <img      src='G_7.jpg' height='90'> <img   src='G_5.jpg' height='90'> <img      src='G_8.jpg' height='90'> <img src='G_1.jpg' height='90'> <img src='G_6.jpg' height='90'>","null","Animation1",""
"","","","","","html-keyboard-response","126","201120","0.0-95.0","44","1","2025-01-25 17:11:55","af8d355d56820e421d246a7037deb6e6","149.88.24.230","Mozilla/5.0 (Windows NT 10.0; Win64; x64) AppleWebKit/537.36 (KHTML, like Gecko) Chrome/132.0.0.0 Safari/537.36","WebKit","Chrome","132.0.0.0","Windows","10.0","https://app.prolific.com/","en-US,en;q=0.9,de;q=0.8","679359525d6dac68ab9d189f","67949641171f97c04e14fb34","67951a3a6f75ca4cb41800f2","","null","<img     src='G_2.jpg' height='90'> <img     src='G_3.jpg' height='90'> <img     src='G_4.jpg' height='90'> <img      src='G_7.jpg' height='90'> <img   src='G_5.jpg' height='90'> <img id='selected'      src='G_8.jpg' height='90'> <img src='G_1.jpg' height='90'> <img src='G_6.jpg' height='90'>","null","Animation1",""
"","","","","","html-keyboard-response","127","201630","0.0-96.0","44","1","2025-01-25 17:11:55","af8d355d56820e421d246a7037deb6e6","149.88.24.230","Mozilla/5.0 (Windows NT 10.0; Win64; x64) AppleWebKit/537.36 (KHTML, like Gecko) Chrome/132.0.0.0 Safari/537.36","WebKit","Chrome","132.0.0.0","Windows","10.0","https://app.prolific.com/","en-US,en;q=0.9,de;q=0.8","679359525d6dac68ab9d189f","67949641171f97c04e14fb34","67951a3a6f75ca4cb41800f2","","null","<img     src='G_2.jpg' height='90'> <img     src='G_3.jpg' height='90'> <img     src='G_4.jpg' height='90'> <img      src='G_7.jpg' height='90'> <img   src='G_5.jpg' height='90'> <img id='selected'      src='G_8.jpg' height='90'> <img id='selected' src='G_1.jpg' height='90'> <img src='G_6.jpg' height='90'>","null","Animation1",""
"","","","","","html-keyboard-response","128","202144","0.0-97.0","44","1","2025-01-25 17:11:55","af8d355d56820e421d246a7037deb6e6","149.88.24.230","Mozilla/5.0 (Windows NT 10.0; Win64; x64) AppleWebKit/537.36 (KHTML, like Gecko) Chrome/132.0.0.0 Safari/537.36","WebKit","Chrome","132.0.0.0","Windows","10.0","https://app.prolific.com/","en-US,en;q=0.9,de;q=0.8","679359525d6dac68ab9d189f","67949641171f97c04e14fb34","67951a3a6f75ca4cb41800f2","","null","<img     src='G_2.jpg' height='90'> <img     src='G_3.jpg' height='90'> <img     src='G_4.jpg' height='90'> <img      src='G_7.jpg' height='90'> <img   src='G_5.jpg' height='90'> <img id='selected'      src='G_8.jpg' height='90'> <img id='selected' src='G_1.jpg' height='90'> <img src='G_6.jpg' height='90'>","null","Animation1",""
"","","","","","html-keyboard-response","129","202456","0.0-98.0","44","1","2025-01-25 17:11:55","af8d355d56820e421d246a7037deb6e6","149.88.24.230","Mozilla/5.0 (Windows NT 10.0; Win64; x64) AppleWebKit/537.36 (KHTML, like Gecko) Chrome/132.0.0.0 Safari/537.36","WebKit","Chrome","132.0.0.0","Windows","10.0","https://app.prolific.com/","en-US,en;q=0.9,de;q=0.8","679359525d6dac68ab9d189f","67949641171f97c04e14fb34","67951a3a6f75ca4cb41800f2","","null","<img     src='G_2.jpg' height='90'> <img     src='G_3.jpg' height='90'> <img     src='G_4.jpg' height='90'> <img      src='G_7.jpg' height='90'> <img   src='G_5.jpg' height='90'> <img       src='G_8.jpg' height='90'> <img  src='G_1.jpg' height='90'> <img src='G_6.jpg' height='90'>","null","Animation1",""
"","","","","","html-keyboard-response","130","202983","0.0-99.0","44","1","2025-01-25 17:11:55","af8d355d56820e421d246a7037deb6e6","149.88.24.230","Mozilla/5.0 (Windows NT 10.0; Win64; x64) AppleWebKit/537.36 (KHTML, like Gecko) Chrome/132.0.0.0 Safari/537.36","WebKit","Chrome","132.0.0.0","Windows","10.0","https://app.prolific.com/","en-US,en;q=0.9,de;q=0.8","679359525d6dac68ab9d189f","67949641171f97c04e14fb34","67951a3a6f75ca4cb41800f2","","null","<img     src='G_2.jpg' height='90'> <img     src='G_3.jpg' height='90'> <img     src='G_4.jpg' height='90'> <img      src='G_7.jpg' height='90'> <img   src='G_5.jpg' height='90'> <img       src='G_8.jpg' height='90'> <img id='selected'  src='G_1.jpg' height='90'> <img src='G_6.jpg' height='90'>","null","Animation1",""
"","","","","","html-keyboard-response","131","203494","0.0-100.0","44","1","2025-01-25 17:11:55","af8d355d56820e421d246a7037deb6e6","149.88.24.230","Mozilla/5.0 (Windows NT 10.0; Win64; x64) AppleWebKit/537.36 (KHTML, like Gecko) Chrome/132.0.0.0 Safari/537.36","WebKit","Chrome","132.0.0.0","Windows","10.0","https://app.prolific.com/","en-US,en;q=0.9,de;q=0.8","679359525d6dac68ab9d189f","67949641171f97c04e14fb34","67951a3a6f75ca4cb41800f2","","null","<img     src='G_2.jpg' height='90'> <img     src='G_3.jpg' height='90'> <img     src='G_4.jpg' height='90'> <img      src='G_7.jpg' height='90'> <img   src='G_5.jpg' height='90'> <img       src='G_8.jpg' height='90'> <img id='selected'  src='G_1.jpg' height='90'> <img id='selected' src='G_6.jpg' height='90'>","null","Animation1",""
"","","","","","html-keyboard-response","132","204018","0.0-101.0","44","1","2025-01-25 17:11:55","af8d355d56820e421d246a7037deb6e6","149.88.24.230","Mozilla/5.0 (Windows NT 10.0; Win64; x64) AppleWebKit/537.36 (KHTML, like Gecko) Chrome/132.0.0.0 Safari/537.36","WebKit","Chrome","132.0.0.0","Windows","10.0","https://app.prolific.com/","en-US,en;q=0.9,de;q=0.8","679359525d6dac68ab9d189f","67949641171f97c04e14fb34","67951a3a6f75ca4cb41800f2","","null","<img     src='G_2.jpg' height='90'> <img     src='G_3.jpg' height='90'> <img     src='G_4.jpg' height='90'> <img      src='G_7.jpg' height='90'> <img   src='G_5.jpg' height='90'> <img       src='G_8.jpg' height='90'> <img id='swapped' src='G_6.jpg' height='90'> <img id='swapped'  src='G_1.jpg' height='90'>","null","Animation1",""
"","","","","","html-keyboard-response","133","204328","0.0-102.0","44","1","2025-01-25 17:11:55","af8d355d56820e421d246a7037deb6e6","149.88.24.230","Mozilla/5.0 (Windows NT 10.0; Win64; x64) AppleWebKit/537.36 (KHTML, like Gecko) Chrome/132.0.0.0 Safari/537.36","WebKit","Chrome","132.0.0.0","Windows","10.0","https://app.prolific.com/","en-US,en;q=0.9,de;q=0.8","679359525d6dac68ab9d189f","67949641171f97c04e14fb34","67951a3a6f75ca4cb41800f2","","null","<img     src='G_2.jpg' height='90'> <img     src='G_3.jpg' height='90'> <img     src='G_4.jpg' height='90'> <img      src='G_7.jpg' height='90'> <img   src='G_5.jpg' height='90'> <img       src='G_8.jpg' height='90'> <img  src='G_6.jpg' height='90'> <img   src='G_1.jpg' height='90'>","null","Animation1",""
"","","","","","html-keyboard-response","134","204843","0.0-103.0","44","1","2025-01-25 17:11:55","af8d355d56820e421d246a7037deb6e6","149.88.24.230","Mozilla/5.0 (Windows NT 10.0; Win64; x64) AppleWebKit/537.36 (KHTML, like Gecko) Chrome/132.0.0.0 Safari/537.36","WebKit","Chrome","132.0.0.0","Windows","10.0","https://app.prolific.com/","en-US,en;q=0.9,de;q=0.8","679359525d6dac68ab9d189f","67949641171f97c04e14fb34","67951a3a6f75ca4cb41800f2","","null","<img     src='G_2.jpg' height='90'> <img     src='G_3.jpg' height='90'> <img     src='G_4.jpg' height='90'> <img      src='G_7.jpg' height='90'> <img   src='G_5.jpg' height='90'> <img id='selected'       src='G_8.jpg' height='90'> <img  src='G_6.jpg' height='90'> <img   src='G_1.jpg' height='90'>","null","Animation1",""
"","","","","","html-keyboard-response","135","205361","0.0-104.0","44","1","2025-01-25 17:11:55","af8d355d56820e421d246a7037deb6e6","149.88.24.230","Mozilla/5.0 (Windows NT 10.0; Win64; x64) AppleWebKit/537.36 (KHTML, like Gecko) Chrome/132.0.0.0 Safari/537.36","WebKit","Chrome","132.0.0.0","Windows","10.0","https://app.prolific.com/","en-US,en;q=0.9,de;q=0.8","679359525d6dac68ab9d189f","67949641171f97c04e14fb34","67951a3a6f75ca4cb41800f2","","null","<img     src='G_2.jpg' height='90'> <img     src='G_3.jpg' height='90'> <img     src='G_4.jpg' height='90'> <img      src='G_7.jpg' height='90'> <img   src='G_5.jpg' height='90'> <img id='selected'       src='G_8.jpg' height='90'> <img id='selected'  src='G_6.jpg' height='90'> <img   src='G_1.jpg' height='90'>","null","Animation1",""
"","","","","","html-keyboard-response","136","205876","0.0-105.0","44","1","2025-01-25 17:11:55","af8d355d56820e421d246a7037deb6e6","149.88.24.230","Mozilla/5.0 (Windows NT 10.0; Win64; x64) AppleWebKit/537.36 (KHTML, like Gecko) Chrome/132.0.0.0 Safari/537.36","WebKit","Chrome","132.0.0.0","Windows","10.0","https://app.prolific.com/","en-US,en;q=0.9,de;q=0.8","679359525d6dac68ab9d189f","67949641171f97c04e14fb34","67951a3a6f75ca4cb41800f2","","null","<img     src='G_2.jpg' height='90'> <img     src='G_3.jpg' height='90'> <img     src='G_4.jpg' height='90'> <img      src='G_7.jpg' height='90'> <img   src='G_5.jpg' height='90'> <img id='selected'       src='G_8.jpg' height='90'> <img id='selected'  src='G_6.jpg' height='90'> <img   src='G_1.jpg' height='90'>","null","Animation1",""
"","","","","","html-keyboard-response","137","206186","0.0-106.0","44","1","2025-01-25 17:11:55","af8d355d56820e421d246a7037deb6e6","149.88.24.230","Mozilla/5.0 (Windows NT 10.0; Win64; x64) AppleWebKit/537.36 (KHTML, like Gecko) Chrome/132.0.0.0 Safari/537.36","WebKit","Chrome","132.0.0.0","Windows","10.0","https://app.prolific.com/","en-US,en;q=0.9,de;q=0.8","679359525d6dac68ab9d189f","67949641171f97c04e14fb34","67951a3a6f75ca4cb41800f2","","null","<img     src='G_2.jpg' height='90'> <img     src='G_3.jpg' height='90'> <img     src='G_4.jpg' height='90'> <img      src='G_7.jpg' height='90'> <img   src='G_5.jpg' height='90'> <img        src='G_8.jpg' height='90'> <img   src='G_6.jpg' height='90'> <img   src='G_1.jpg' height='90'>","null","Animation1",""
"","","","","","html-keyboard-response","138","211244","0.0-107.0","44","1","2025-01-25 17:11:55","af8d355d56820e421d246a7037deb6e6","149.88.24.230","Mozilla/5.0 (Windows NT 10.0; Win64; x64) AppleWebKit/537.36 (KHTML, like Gecko) Chrome/132.0.0.0 Safari/537.36","WebKit","Chrome","132.0.0.0","Windows","10.0","https://app.prolific.com/","en-US,en;q=0.9,de;q=0.8","679359525d6dac68ab9d189f","67949641171f97c04e14fb34","67951a3a6f75ca4cb41800f2","","5044","[""Did you notice any patterns? <br><br>Press Enter to watch that example again and follow the steps of Omgne Sort.""]","enter","",""
"","","","","","html-button-response","139","211661","0.0-108.0","44","1","2025-01-25 17:11:55","af8d355d56820e421d246a7037deb6e6","149.88.24.230","Mozilla/5.0 (Windows NT 10.0; Win64; x64) AppleWebKit/537.36 (KHTML, like Gecko) Chrome/132.0.0.0 Safari/537.36","WebKit","Chrome","132.0.0.0","Windows","10.0","https://app.prolific.com/","en-US,en;q=0.9,de;q=0.8","679359525d6dac68ab9d189f","67949641171f97c04e14fb34","67951a3a6f75ca4cb41800f2","","null","<img id='selected' src='G_7.jpg' height='90'> <img src='G_8.jpg' height='90'> <img src='G_4.jpg' height='90'> <img src='G_2.jpg' height='90'> <img src='G_3.jpg' height='90'> <img src='G_5.jpg' height='90'> <img src='G_1.jpg' height='90'> <img src='G_6.jpg' height='90'>","null","Learning example 1",""
"","","","","","html-button-response","140","211977","0.0-109.0","44","1","2025-01-25 17:11:55","af8d355d56820e421d246a7037deb6e6","149.88.24.230","Mozilla/5.0 (Windows NT 10.0; Win64; x64) AppleWebKit/537.36 (KHTML, like Gecko) Chrome/132.0.0.0 Safari/537.36","WebKit","Chrome","132.0.0.0","Windows","10.0","https://app.prolific.com/","en-US,en;q=0.9,de;q=0.8","679359525d6dac68ab9d189f","67949641171f97c04e14fb34","67951a3a6f75ca4cb41800f2","","null","<img id='selected' src='G_7.jpg' height='90'> <img id='selected' src='G_8.jpg' height='90'> <img src='G_4.jpg' height='90'> <img src='G_2.jpg' height='90'> <img src='G_3.jpg' height='90'> <img src='G_5.jpg' height='90'> <img src='G_1.jpg' height='90'> <img src='G_6.jpg' height='90'>","null","Learning example 1",""
"","","","","","html-button-response","141","212295","0.0-110.0","44","1","2025-01-25 17:11:55","af8d355d56820e421d246a7037deb6e6","149.88.24.230","Mozilla/5.0 (Windows NT 10.0; Win64; x64) AppleWebKit/537.36 (KHTML, like Gecko) Chrome/132.0.0.0 Safari/537.36","WebKit","Chrome","132.0.0.0","Windows","10.0","https://app.prolific.com/","en-US,en;q=0.9,de;q=0.8","679359525d6dac68ab9d189f","67949641171f97c04e14fb34","67951a3a6f75ca4cb41800f2","","null","<img id='selected' src='G_7.jpg' height='90'> <img id='selected' src='G_8.jpg' height='90'> <img src='G_4.jpg' height='90'> <img src='G_2.jpg' height='90'> <img src='G_3.jpg' height='90'> <img src='G_5.jpg' height='90'> <img src='G_1.jpg' height='90'> <img src='G_6.jpg' height='90'>","null","Learning example 1",""
"","","","","","html-button-response","142","212762","0.0-111.0-0.0-0.0","44","1","2025-01-25 17:11:55","af8d355d56820e421d246a7037deb6e6","149.88.24.230","Mozilla/5.0 (Windows NT 10.0; Win64; x64) AppleWebKit/537.36 (KHTML, like Gecko) Chrome/132.0.0.0 Safari/537.36","WebKit","Chrome","132.0.0.0","Windows","10.0","https://app.prolific.com/","en-US,en;q=0.9,de;q=0.8","679359525d6dac68ab9d189f","67949641171f97c04e14fb34","67951a3a6f75ca4cb41800f2","","456","<img id='selected' src='G_7.jpg' height='90'> <img id='selected' src='G_8.jpg' height='90'> <img src='G_4.jpg' height='90'> <img src='G_2.jpg' height='90'> <img src='G_3.jpg' height='90'> <img src='G_5.jpg' height='90'> <img src='G_1.jpg' height='90'> <img src='G_6.jpg' height='90'>","1","Learning example 1",""
"","","","","","html-button-response","143","214123","0.0-111.1-0.1-0.1","44","1","2025-01-25 17:11:55","af8d355d56820e421d246a7037deb6e6","149.88.24.230","Mozilla/5.0 (Windows NT 10.0; Win64; x64) AppleWebKit/537.36 (KHTML, like Gecko) Chrome/132.0.0.0 Safari/537.36","WebKit","Chrome","132.0.0.0","Windows","10.0","https://app.prolific.com/","en-US,en;q=0.9,de;q=0.8","679359525d6dac68ab9d189f","67949641171f97c04e14fb34","67951a3a6f75ca4cb41800f2","","1351","<img id='selected' src='G_7.jpg' height='90'> <img id='selected' src='G_8.jpg' height='90'> <img src='G_4.jpg' height='90'> <img src='G_2.jpg' height='90'> <img src='G_3.jpg' height='90'> <img src='G_5.jpg' height='90'> <img src='G_1.jpg' height='90'> <img src='G_6.jpg' height='90'>","1","Learning example 1",""
"","","","","","html-button-response","144","214671","0.0-111.2-0.2-0.2","44","1","2025-01-25 17:11:55","af8d355d56820e421d246a7037deb6e6","149.88.24.230","Mozilla/5.0 (Windows NT 10.0; Win64; x64) AppleWebKit/537.36 (KHTML, like Gecko) Chrome/132.0.0.0 Safari/537.36","WebKit","Chrome","132.0.0.0","Windows","10.0","https://app.prolific.com/","en-US,en;q=0.9,de;q=0.8","679359525d6dac68ab9d189f","67949641171f97c04e14fb34","67951a3a6f75ca4cb41800f2","","539","<img id='selected' src='G_7.jpg' height='90'> <img id='selected' src='G_8.jpg' height='90'> <img src='G_4.jpg' height='90'> <img src='G_2.jpg' height='90'> <img src='G_3.jpg' height='90'> <img src='G_5.jpg' height='90'> <img src='G_1.jpg' height='90'> <img src='G_6.jpg' height='90'>","0","Learning example 1",""
"","","","","","html-button-response","145","214886","0.0-112.0","44","1","2025-01-25 17:11:55","af8d355d56820e421d246a7037deb6e6","149.88.24.230","Mozilla/5.0 (Windows NT 10.0; Win64; x64) AppleWebKit/537.36 (KHTML, like Gecko) Chrome/132.0.0.0 Safari/537.36","WebKit","Chrome","132.0.0.0","Windows","10.0","https://app.prolific.com/","en-US,en;q=0.9,de;q=0.8","679359525d6dac68ab9d189f","67949641171f97c04e14fb34","67951a3a6f75ca4cb41800f2","","null","<img  src='G_7.jpg' height='90'> <img  src='G_8.jpg' height='90'> <img src='G_4.jpg' height='90'> <img src='G_2.jpg' height='90'> <img src='G_3.jpg' height='90'> <img src='G_5.jpg' height='90'> <img src='G_1.jpg' height='90'> <img src='G_6.jpg' height='90'>","null","Learning example 1",""
"","","","","","html-button-response","146","215304","0.0-113.0","44","1","2025-01-25 17:11:55","af8d355d56820e421d246a7037deb6e6","149.88.24.230","Mozilla/5.0 (Windows NT 10.0; Win64; x64) AppleWebKit/537.36 (KHTML, like Gecko) Chrome/132.0.0.0 Safari/537.36","WebKit","Chrome","132.0.0.0","Windows","10.0","https://app.prolific.com/","en-US,en;q=0.9,de;q=0.8","679359525d6dac68ab9d189f","67949641171f97c04e14fb34","67951a3a6f75ca4cb41800f2","","null","<img  src='G_7.jpg' height='90'> <img id='selected'  src='G_8.jpg' height='90'> <img src='G_4.jpg' height='90'> <img src='G_2.jpg' height='90'> <img src='G_3.jpg' height='90'> <img src='G_5.jpg' height='90'> <img src='G_1.jpg' height='90'> <img src='G_6.jpg' height='90'>","null","Learning example 1",""
"","","","","","html-button-response","147","215615","0.0-114.0","44","1","2025-01-25 17:11:55","af8d355d56820e421d246a7037deb6e6","149.88.24.230","Mozilla/5.0 (Windows NT 10.0; Win64; x64) AppleWebKit/537.36 (KHTML, like Gecko) Chrome/132.0.0.0 Safari/537.36","WebKit","Chrome","132.0.0.0","Windows","10.0","https://app.prolific.com/","en-US,en;q=0.9,de;q=0.8","679359525d6dac68ab9d189f","67949641171f97c04e14fb34","67951a3a6f75ca4cb41800f2","","null","<img  src='G_7.jpg' height='90'> <img id='selected'  src='G_8.jpg' height='90'> <img id='selected' src='G_4.jpg' height='90'> <img src='G_2.jpg' height='90'> <img src='G_3.jpg' height='90'> <img src='G_5.jpg' height='90'> <img src='G_1.jpg' height='90'> <img src='G_6.jpg' height='90'>","null","Learning example 1",""
