"success","timeout","failed_images","failed_audio","failed_video","trial_type","trial_index","time_elapsed","internal_node_id","run_id","condition","recorded_at","source_code_version","ip","user_agent","device","browser","browser_version","platform","platform_version","referer","accept_language","PROLIFIC_PID","STUDY_ID","SESSION_ID","view_history","rt","stimulus","response","phase","question_order"
"true","false","[]","[]","[]","preload","0","1918","0.0-0.0","51","1","2025-01-29 23:03:11","af8d355d56820e421d246a7037deb6e6","97.148.119.241","Mozilla/5.0 (Windows NT 10.0; Win64; x64) AppleWebKit/537.36 (KHTML, like Gecko) Chrome/132.0.0.0 Safari/537.36","WebKit","Chrome","132.0.0.0","Windows","10.0","https://app.prolific.com/","en-US,en;q=0.9","6629517257384969d8995d78","67949641171f97c04e14fb34","679ab3a0eaa7dc34aebe73fa","","","","","",""
"","","","","","instructions","1","9312","0.0-1.0","51","1","2025-01-29 23:03:11","af8d355d56820e421d246a7037deb6e6","97.148.119.241","Mozilla/5.0 (Windows NT 10.0; Win64; x64) AppleWebKit/537.36 (KHTML, like Gecko) Chrome/132.0.0.0 Safari/537.36","WebKit","Chrome","132.0.0.0","Windows","10.0","https://app.prolific.com/","en-US,en;q=0.9","6629517257384969d8995d78","67949641171f97c04e14fb34","679ab3a0eaa7dc34aebe73fa","[{""page_index"":0,""viewing_time"":7391}]","7392","","","",""
"","","","","","html-keyboard-response","2","9816","0.0-2.0","51","1","2025-01-29 23:03:11","af8d355d56820e421d246a7037deb6e6","97.148.119.241","Mozilla/5.0 (Windows NT 10.0; Win64; x64) AppleWebKit/537.36 (KHTML, like Gecko) Chrome/132.0.0.0 Safari/537.36","WebKit","Chrome","132.0.0.0","Windows","10.0","https://app.prolific.com/","en-US,en;q=0.9","6629517257384969d8995d78","67949641171f97c04e14fb34","679ab3a0eaa7dc34aebe73fa","","null","<p> + <p/>","null","",""
"","","","","","instructions","3","45616","0.0-3.0","51","1","2025-01-29 23:03:11","af8d355d56820e421d246a7037deb6e6","97.148.119.241","Mozilla/5.0 (Windows NT 10.0; Win64; x64) AppleWebKit/537.36 (KHTML, like Gecko) Chrome/132.0.0.0 Safari/537.36","WebKit","Chrome","132.0.0.0","Windows","10.0","https://app.prolific.com/","en-US,en;q=0.9","6629517257384969d8995d78","67949641171f97c04e14fb34","679ab3a0eaa7dc34aebe73fa","[{""page_index"":0,""viewing_time"":4205},{""page_index"":1,""viewing_time"":9499},{""page_index"":2,""viewing_time"":7374},{""page_index"":3,""viewing_time"":5157},{""page_index"":4,""viewing_time"":9564}]","35798","","","",""
"","","","","","html-button-response","4","60545","0.0-4.0-0.0-0.0","51","1","2025-01-29 23:03:11","af8d355d56820e421d246a7037deb6e6","97.148.119.241","Mozilla/5.0 (Windows NT 10.0; Win64; x64) AppleWebKit/537.36 (KHTML, like Gecko) Chrome/132.0.0.0 Safari/537.36","WebKit","Chrome","132.0.0.0","Windows","10.0","https://app.prolific.com/","en-US,en;q=0.9","6629517257384969d8995d78","67949641171f97c04e14fb34","679ab3a0eaa7dc34aebe73fa","","14925","","0","Intro Trial",""
"","","","","","html-button-response","5","61941","0.0-4.1-0.1-0.1","51","1","2025-01-29 23:03:11","af8d355d56820e421d246a7037deb6e6","97.148.119.241","Mozilla/5.0 (Windows NT 10.0; Win64; x64) AppleWebKit/537.36 (KHTML, like Gecko) Chrome/132.0.0.0 Safari/537.36","WebKit","Chrome","132.0.0.0","Windows","10.0","https://app.prolific.com/","en-US,en;q=0.9","6629517257384969d8995d78","67949641171f97c04e14fb34","679ab3a0eaa7dc34aebe73fa","","1394","","2","Intro Trial",""
"","","","","","html-button-response","6","66742","0.0-4.2-0.2-0.2","51","1","2025-01-29 23:03:11","af8d355d56820e421d246a7037deb6e6","97.148.119.241","Mozilla/5.0 (Windows NT 10.0; Win64; x64) AppleWebKit/537.36 (KHTML, like Gecko) Chrome/132.0.0.0 Safari/537.36","WebKit","Chrome","132.0.0.0","Windows","10.0","https://app.prolific.com/","en-US,en;q=0.9","6629517257384969d8995d78","67949641171f97c04e14fb34","679ab3a0eaa7dc34aebe73fa","","4798","","1","Intro Trial",""
"","","","","","html-button-response","7","68256","0.0-4.3-0.3-0.3","51","1","2025-01-29 23:03:11","af8d355d56820e421d246a7037deb6e6","97.148.119.241","Mozilla/5.0 (Windows NT 10.0; Win64; x64) AppleWebKit/537.36 (KHTML, like Gecko) Chrome/132.0.0.0 Safari/537.36","WebKit","Chrome","132.0.0.0","Windows","10.0","https://app.prolific.com/","en-US,en;q=0.9","6629517257384969d8995d78","67949641171f97c04e14fb34","679ab3a0eaa7dc34aebe73fa","","1511","","3","Intro Trial",""
"","","","","","html-button-response","8","73041","0.0-4.4-0.4-0.4","51","1","2025-01-29 23:03:11","af8d355d56820e421d246a7037deb6e6","97.148.119.241","Mozilla/5.0 (Windows NT 10.0; Win64; x64) AppleWebKit/537.36 (KHTML, like Gecko) Chrome/132.0.0.0 Safari/537.36","WebKit","Chrome","132.0.0.0","Windows","10.0","https://app.prolific.com/","en-US,en;q=0.9","6629517257384969d8995d78","67949641171f97c04e14fb34","679ab3a0eaa7dc34aebe73fa","","4783","","4","Intro Trial",""
"","","","","","html-button-response","9","74557","0.0-4.5-0.5-0.5","51","1","2025-01-29 23:03:11","af8d355d56820e421d246a7037deb6e6","97.148.119.241","Mozilla/5.0 (Windows NT 10.0; Win64; x64) AppleWebKit/537.36 (KHTML, like Gecko) Chrome/132.0.0.0 Safari/537.36","WebKit","Chrome","132.0.0.0","Windows","10.0","https://app.prolific.com/","en-US,en;q=0.9","6629517257384969d8995d78","67949641171f97c04e14fb34","679ab3a0eaa7dc34aebe73fa","","1514","","1","Intro Trial",""
"","","","","","html-button-response","10","77357","0.0-4.6-0.6-0.6","51","1","2025-01-29 23:03:11","af8d355d56820e421d246a7037deb6e6","97.148.119.241","Mozilla/5.0 (Windows NT 10.0; Win64; x64) AppleWebKit/537.36 (KHTML, like Gecko) Chrome/132.0.0.0 Safari/537.36","WebKit","Chrome","132.0.0.0","Windows","10.0","https://app.prolific.com/","en-US,en;q=0.9","6629517257384969d8995d78","67949641171f97c04e14fb34","679ab3a0eaa7dc34aebe73fa","","2797","","2","Intro Trial",""
"","","","","","html-button-response","11","78490","0.0-4.7-0.7-0.7","51","1","2025-01-29 23:03:11","af8d355d56820e421d246a7037deb6e6","97.148.119.241","Mozilla/5.0 (Windows NT 10.0; Win64; x64) AppleWebKit/537.36 (KHTML, like Gecko) Chrome/132.0.0.0 Safari/537.36","WebKit","Chrome","132.0.0.0","Windows","10.0","https://app.prolific.com/","en-US,en;q=0.9","6629517257384969d8995d78","67949641171f97c04e14fb34","679ab3a0eaa7dc34aebe73fa","","1132","","3","Intro Trial",""
"","","","","","html-button-response","12","80359","0.0-4.8-0.8-0.8","51","1","2025-01-29 23:03:11","af8d355d56820e421d246a7037deb6e6","97.148.119.241","Mozilla/5.0 (Windows NT 10.0; Win64; x64) AppleWebKit/537.36 (KHTML, like Gecko) Chrome/132.0.0.0 Safari/537.36","WebKit","Chrome","132.0.0.0","Windows","10.0","https://app.prolific.com/","en-US,en;q=0.9","6629517257384969d8995d78","67949641171f97c04e14fb34","679ab3a0eaa7dc34aebe73fa","","1867","","2","Intro Trial",""
"","","","","","html-button-response","13","81345","0.0-4.9-0.9-0.9","51","1","2025-01-29 23:03:11","af8d355d56820e421d246a7037deb6e6","97.148.119.241","Mozilla/5.0 (Windows NT 10.0; Win64; x64) AppleWebKit/537.36 (KHTML, like Gecko) Chrome/132.0.0.0 Safari/537.36","WebKit","Chrome","132.0.0.0","Windows","10.0","https://app.prolific.com/","en-US,en;q=0.9","6629517257384969d8995d78","67949641171f97c04e14fb34","679ab3a0eaa7dc34aebe73fa","","982","","4","Intro Trial",""
"","","","","","html-button-response","14","86959","0.0-4.10-0.10-0.10","51","1","2025-01-29 23:03:11","af8d355d56820e421d246a7037deb6e6","97.148.119.241","Mozilla/5.0 (Windows NT 10.0; Win64; x64) AppleWebKit/537.36 (KHTML, like Gecko) Chrome/132.0.0.0 Safari/537.36","WebKit","Chrome","132.0.0.0","Windows","10.0","https://app.prolific.com/","en-US,en;q=0.9","6629517257384969d8995d78","67949641171f97c04e14fb34","679ab3a0eaa7dc34aebe73fa","","5612","","5","Intro Trial",""
"","","","","","html-keyboard-response","15","99852","0.0-5.0","51","1","2025-01-29 23:03:11","af8d355d56820e421d246a7037deb6e6","97.148.119.241","Mozilla/5.0 (Windows NT 10.0; Win64; x64) AppleWebKit/537.36 (KHTML, like Gecko) Chrome/132.0.0.0 Safari/537.36","WebKit","Chrome","132.0.0.0","Windows","10.0","https://app.prolific.com/","en-US,en;q=0.9","6629517257384969d8995d78","67949641171f97c04e14fb34","679ab3a0eaa7dc34aebe73fa","","12890","[""You sorted incorrectly by using the balance 5 times. <br><br> <img src='G_3.jpg' height='90'><img src='G_5.jpg' height='90'><img src='G_2.jpg' height='90'><img src='G_4.jpg' height='90'><img src='G_1.jpg' height='90'><br><br> Your final order is 3,1,2,5,4<br><br><br>Omgne Sort in this game will allow you to sort correctly by using the balance 8 times. Press Enter to learn it!""]","enter","",""
"","","","","","html-keyboard-response","16","106834","0.0-6.0","51","1","2025-01-29 23:03:11","af8d355d56820e421d246a7037deb6e6","97.148.119.241","Mozilla/5.0 (Windows NT 10.0; Win64; x64) AppleWebKit/537.36 (KHTML, like Gecko) Chrome/132.0.0.0 Safari/537.36","WebKit","Chrome","132.0.0.0","Windows","10.0","https://app.prolific.com/","en-US,en;q=0.9","6629517257384969d8995d78","67949641171f97c04e14fb34","679ab3a0eaa7dc34aebe73fa","","6981","<p>Welcome to the learning phase! <br><br> You will learn by six examples. The following learning trials will not be used to calculate your performance. <br><br> Press Enter to continue.<p/>","enter","",""
"","","","","","html-keyboard-response","17","112151","0.0-7.0","51","1","2025-01-29 23:03:11","af8d355d56820e421d246a7037deb6e6","97.148.119.241","Mozilla/5.0 (Windows NT 10.0; Win64; x64) AppleWebKit/537.36 (KHTML, like Gecko) Chrome/132.0.0.0 Safari/537.36","WebKit","Chrome","132.0.0.0","Windows","10.0","https://app.prolific.com/","en-US,en;q=0.9","6629517257384969d8995d78","67949641171f97c04e14fb34","679ab3a0eaa7dc34aebe73fa","","5316","[""Example 1<br><br>You will watch Omnge Sort in action. Try to identify any patterns in the comparisons made by this method. <br><br>Press Enter to continue.""]","enter","",""
"","","","","","html-keyboard-response","18","112657","0.0-8.0","51","1","2025-01-29 23:03:11","af8d355d56820e421d246a7037deb6e6","97.148.119.241","Mozilla/5.0 (Windows NT 10.0; Win64; x64) AppleWebKit/537.36 (KHTML, like Gecko) Chrome/132.0.0.0 Safari/537.36","WebKit","Chrome","132.0.0.0","Windows","10.0","https://app.prolific.com/","en-US,en;q=0.9","6629517257384969d8995d78","67949641171f97c04e14fb34","679ab3a0eaa7dc34aebe73fa","","null","<img id='selected' src='G_5.jpg' height='90'> <img src='G_7.jpg' height='90'> <img src='G_9.jpg' height='90'> <img src='G_3.jpg' height='90'> <img src='G_1.jpg' height='90'>","null","Animation0",""
"","","","","","html-keyboard-response","19","113170","0.0-9.0","51","1","2025-01-29 23:03:11","af8d355d56820e421d246a7037deb6e6","97.148.119.241","Mozilla/5.0 (Windows NT 10.0; Win64; x64) AppleWebKit/537.36 (KHTML, like Gecko) Chrome/132.0.0.0 Safari/537.36","WebKit","Chrome","132.0.0.0","Windows","10.0","https://app.prolific.com/","en-US,en;q=0.9","6629517257384969d8995d78","67949641171f97c04e14fb34","679ab3a0eaa7dc34aebe73fa","","null","<img id='selected' src='G_5.jpg' height='90'> <img id='selected' src='G_7.jpg' height='90'> <img src='G_9.jpg' height='90'> <img src='G_3.jpg' height='90'> <img src='G_1.jpg' height='90'>","null","Animation0",""
"","","","","","html-keyboard-response","20","113687","0.0-10.0","51","1","2025-01-29 23:03:11","af8d355d56820e421d246a7037deb6e6","97.148.119.241","Mozilla/5.0 (Windows NT 10.0; Win64; x64) AppleWebKit/537.36 (KHTML, like Gecko) Chrome/132.0.0.0 Safari/537.36","WebKit","Chrome","132.0.0.0","Windows","10.0","https://app.prolific.com/","en-US,en;q=0.9","6629517257384969d8995d78","67949641171f97c04e14fb34","679ab3a0eaa7dc34aebe73fa","","null","<img id='swapped' src='G_7.jpg' height='90'> <img id='swapped' src='G_5.jpg' height='90'> <img src='G_9.jpg' height='90'> <img src='G_3.jpg' height='90'> <img src='G_1.jpg' height='90'>","null","Animation0",""
"","","","","","html-keyboard-response","21","114000","0.0-11.0","51","1","2025-01-29 23:03:11","af8d355d56820e421d246a7037deb6e6","97.148.119.241","Mozilla/5.0 (Windows NT 10.0; Win64; x64) AppleWebKit/537.36 (KHTML, like Gecko) Chrome/132.0.0.0 Safari/537.36","WebKit","Chrome","132.0.0.0","Windows","10.0","https://app.prolific.com/","en-US,en;q=0.9","6629517257384969d8995d78","67949641171f97c04e14fb34","679ab3a0eaa7dc34aebe73fa","","null","<img  src='G_7.jpg' height='90'> <img  src='G_5.jpg' height='90'> <img src='G_9.jpg' height='90'> <img src='G_3.jpg' height='90'> <img src='G_1.jpg' height='90'>","null","Animation0",""
"","","","","","html-keyboard-response","22","114505","0.0-12.0","51","1","2025-01-29 23:03:11","af8d355d56820e421d246a7037deb6e6","97.148.119.241","Mozilla/5.0 (Windows NT 10.0; Win64; x64) AppleWebKit/537.36 (KHTML, like Gecko) Chrome/132.0.0.0 Safari/537.36","WebKit","Chrome","132.0.0.0","Windows","10.0","https://app.prolific.com/","en-US,en;q=0.9","6629517257384969d8995d78","67949641171f97c04e14fb34","679ab3a0eaa7dc34aebe73fa","","null","<img  src='G_7.jpg' height='90'> <img id='selected'  src='G_5.jpg' height='90'> <img src='G_9.jpg' height='90'> <img src='G_3.jpg' height='90'> <img src='G_1.jpg' height='90'>","null","Animation0",""
"","","","","","html-keyboard-response","23","115020","0.0-13.0","51","1","2025-01-29 23:03:11","af8d355d56820e421d246a7037deb6e6","97.148.119.241","Mozilla/5.0 (Windows NT 10.0; Win64; x64) AppleWebKit/537.36 (KHTML, like Gecko) Chrome/132.0.0.0 Safari/537.36","WebKit","Chrome","132.0.0.0","Windows","10.0","https://app.prolific.com/","en-US,en;q=0.9","6629517257384969d8995d78","67949641171f97c04e14fb34","679ab3a0eaa7dc34aebe73fa","","null","<img  src='G_7.jpg' height='90'> <img id='selected'  src='G_5.jpg' height='90'> <img id='selected' src='G_9.jpg' height='90'> <img src='G_3.jpg' height='90'> <img src='G_1.jpg' height='90'>","null","Animation0",""
"","","","","","html-keyboard-response","24","115537","0.0-14.0","51","1","2025-01-29 23:03:11","af8d355d56820e421d246a7037deb6e6","97.148.119.241","Mozilla/5.0 (Windows NT 10.0; Win64; x64) AppleWebKit/537.36 (KHTML, like Gecko) Chrome/132.0.0.0 Safari/537.36","WebKit","Chrome","132.0.0.0","Windows","10.0","https://app.prolific.com/","en-US,en;q=0.9","6629517257384969d8995d78","67949641171f97c04e14fb34","679ab3a0eaa7dc34aebe73fa","","null","<img  src='G_7.jpg' height='90'> <img id='selected'  src='G_5.jpg' height='90'> <img id='selected' src='G_9.jpg' height='90'> <img src='G_3.jpg' height='90'> <img src='G_1.jpg' height='90'>","null","Animation0",""
"","","","","","html-keyboard-response","25","115850","0.0-15.0","51","1","2025-01-29 23:03:11","af8d355d56820e421d246a7037deb6e6","97.148.119.241","Mozilla/5.0 (Windows NT 10.0; Win64; x64) AppleWebKit/537.36 (KHTML, like Gecko) Chrome/132.0.0.0 Safari/537.36","WebKit","Chrome","132.0.0.0","Windows","10.0","https://app.prolific.com/","en-US,en;q=0.9","6629517257384969d8995d78","67949641171f97c04e14fb34","679ab3a0eaa7dc34aebe73fa","","null","<img  src='G_7.jpg' height='90'> <img   src='G_5.jpg' height='90'> <img  src='G_9.jpg' height='90'> <img src='G_3.jpg' height='90'> <img src='G_1.jpg' height='90'>","null","Animation0",""
"","","","","","html-keyboard-response","26","116354","0.0-16.0","51","1","2025-01-29 23:03:11","af8d355d56820e421d246a7037deb6e6","97.148.119.241","Mozilla/5.0 (Windows NT 10.0; Win64; x64) AppleWebKit/537.36 (KHTML, like Gecko) Chrome/132.0.0.0 Safari/537.36","WebKit","Chrome","132.0.0.0","Windows","10.0","https://app.prolific.com/","en-US,en;q=0.9","6629517257384969d8995d78","67949641171f97c04e14fb34","679ab3a0eaa7dc34aebe73fa","","null","<img  src='G_7.jpg' height='90'> <img   src='G_5.jpg' height='90'> <img id='selected'  src='G_9.jpg' height='90'> <img src='G_3.jpg' height='90'> <img src='G_1.jpg' height='90'>","null","Animation0",""
"","","","","","html-keyboard-response","27","116870","0.0-17.0","51","1","2025-01-29 23:03:11","af8d355d56820e421d246a7037deb6e6","97.148.119.241","Mozilla/5.0 (Windows NT 10.0; Win64; x64) AppleWebKit/537.36 (KHTML, like Gecko) Chrome/132.0.0.0 Safari/537.36","WebKit","Chrome","132.0.0.0","Windows","10.0","https://app.prolific.com/","en-US,en;q=0.9","6629517257384969d8995d78","67949641171f97c04e14fb34","679ab3a0eaa7dc34aebe73fa","","null","<img  src='G_7.jpg' height='90'> <img   src='G_5.jpg' height='90'> <img id='selected'  src='G_9.jpg' height='90'> <img id='selected' src='G_3.jpg' height='90'> <img src='G_1.jpg' height='90'>","null","Animation0",""
"","","","","","html-keyboard-response","28","117386","0.0-18.0","51","1","2025-01-29 23:03:11","af8d355d56820e421d246a7037deb6e6","97.148.119.241","Mozilla/5.0 (Windows NT 10.0; Win64; x64) AppleWebKit/537.36 (KHTML, like Gecko) Chrome/132.0.0.0 Safari/537.36","WebKit","Chrome","132.0.0.0","Windows","10.0","https://app.prolific.com/","en-US,en;q=0.9","6629517257384969d8995d78","67949641171f97c04e14fb34","679ab3a0eaa7dc34aebe73fa","","null","<img  src='G_7.jpg' height='90'> <img   src='G_5.jpg' height='90'> <img id='selected'  src='G_9.jpg' height='90'> <img id='selected' src='G_3.jpg' height='90'> <img src='G_1.jpg' height='90'>","null","Animation0",""
"","","","","","html-keyboard-response","29","117700","0.0-19.0","51","1","2025-01-29 23:03:11","af8d355d56820e421d246a7037deb6e6","97.148.119.241","Mozilla/5.0 (Windows NT 10.0; Win64; x64) AppleWebKit/537.36 (KHTML, like Gecko) Chrome/132.0.0.0 Safari/537.36","WebKit","Chrome","132.0.0.0","Windows","10.0","https://app.prolific.com/","en-US,en;q=0.9","6629517257384969d8995d78","67949641171f97c04e14fb34","679ab3a0eaa7dc34aebe73fa","","null","<img  src='G_7.jpg' height='90'> <img   src='G_5.jpg' height='90'> <img   src='G_9.jpg' height='90'> <img  src='G_3.jpg' height='90'> <img src='G_1.jpg' height='90'>","null","Animation0",""
"","","","","","html-keyboard-response","30","118204","0.0-20.0","51","1","2025-01-29 23:03:11","af8d355d56820e421d246a7037deb6e6","97.148.119.241","Mozilla/5.0 (Windows NT 10.0; Win64; x64) AppleWebKit/537.36 (KHTML, like Gecko) Chrome/132.0.0.0 Safari/537.36","WebKit","Chrome","132.0.0.0","Windows","10.0","https://app.prolific.com/","en-US,en;q=0.9","6629517257384969d8995d78","67949641171f97c04e14fb34","679ab3a0eaa7dc34aebe73fa","","null","<img  src='G_7.jpg' height='90'> <img   src='G_5.jpg' height='90'> <img   src='G_9.jpg' height='90'> <img id='selected'  src='G_3.jpg' height='90'> <img src='G_1.jpg' height='90'>","null","Animation0",""
"","","","","","html-keyboard-response","31","118720","0.0-21.0","51","1","2025-01-29 23:03:11","af8d355d56820e421d246a7037deb6e6","97.148.119.241","Mozilla/5.0 (Windows NT 10.0; Win64; x64) AppleWebKit/537.36 (KHTML, like Gecko) Chrome/132.0.0.0 Safari/537.36","WebKit","Chrome","132.0.0.0","Windows","10.0","https://app.prolific.com/","en-US,en;q=0.9","6629517257384969d8995d78","67949641171f97c04e14fb34","679ab3a0eaa7dc34aebe73fa","","null","<img  src='G_7.jpg' height='90'> <img   src='G_5.jpg' height='90'> <img   src='G_9.jpg' height='90'> <img id='selected'  src='G_3.jpg' height='90'> <img id='selected' src='G_1.jpg' height='90'>","null","Animation0",""
"","","","","","html-keyboard-response","32","119236","0.0-22.0","51","1","2025-01-29 23:03:11","af8d355d56820e421d246a7037deb6e6","97.148.119.241","Mozilla/5.0 (Windows NT 10.0; Win64; x64) AppleWebKit/537.36 (KHTML, like Gecko) Chrome/132.0.0.0 Safari/537.36","WebKit","Chrome","132.0.0.0","Windows","10.0","https://app.prolific.com/","en-US,en;q=0.9","6629517257384969d8995d78","67949641171f97c04e14fb34","679ab3a0eaa7dc34aebe73fa","","null","<img  src='G_7.jpg' height='90'> <img   src='G_5.jpg' height='90'> <img   src='G_9.jpg' height='90'> <img id='selected'  src='G_3.jpg' height='90'> <img id='selected' src='G_1.jpg' height='90'>","null","Animation0",""
"","","","","","html-keyboard-response","33","119550","0.0-23.0","51","1","2025-01-29 23:03:11","af8d355d56820e421d246a7037deb6e6","97.148.119.241","Mozilla/5.0 (Windows NT 10.0; Win64; x64) AppleWebKit/537.36 (KHTML, like Gecko) Chrome/132.0.0.0 Safari/537.36","WebKit","Chrome","132.0.0.0","Windows","10.0","https://app.prolific.com/","en-US,en;q=0.9","6629517257384969d8995d78","67949641171f97c04e14fb34","679ab3a0eaa7dc34aebe73fa","","null","<img  src='G_7.jpg' height='90'> <img   src='G_5.jpg' height='90'> <img   src='G_9.jpg' height='90'> <img   src='G_3.jpg' height='90'> <img  src='G_1.jpg' height='90'>","null","Animation0",""
"","","","","","html-keyboard-response","34","123161","0.0-24.0","51","1","2025-01-29 23:03:11","af8d355d56820e421d246a7037deb6e6","97.148.119.241","Mozilla/5.0 (Windows NT 10.0; Win64; x64) AppleWebKit/537.36 (KHTML, like Gecko) Chrome/132.0.0.0 Safari/537.36","WebKit","Chrome","132.0.0.0","Windows","10.0","https://app.prolific.com/","en-US,en;q=0.9","6629517257384969d8995d78","67949641171f97c04e14fb34","679ab3a0eaa7dc34aebe73fa","","3609","[""Did you notice any patterns? <br><br>Press Enter to watch that example again and follow the steps of Omgne Sort.""]","enter","",""
"","","","","","html-button-response","35","123577","0.0-25.0","51","1","2025-01-29 23:03:11","af8d355d56820e421d246a7037deb6e6","97.148.119.241","Mozilla/5.0 (Windows NT 10.0; Win64; x64) AppleWebKit/537.36 (KHTML, like Gecko) Chrome/132.0.0.0 Safari/537.36","WebKit","Chrome","132.0.0.0","Windows","10.0","https://app.prolific.com/","en-US,en;q=0.9","6629517257384969d8995d78","67949641171f97c04e14fb34","679ab3a0eaa7dc34aebe73fa","","null","<img id='selected' src='G_5.jpg' height='90'> <img src='G_7.jpg' height='90'> <img src='G_9.jpg' height='90'> <img src='G_3.jpg' height='90'> <img src='G_1.jpg' height='90'>","null","Learning example 0",""
"","","","","","html-button-response","36","123883","0.0-26.0","51","1","2025-01-29 23:03:11","af8d355d56820e421d246a7037deb6e6","97.148.119.241","Mozilla/5.0 (Windows NT 10.0; Win64; x64) AppleWebKit/537.36 (KHTML, like Gecko) Chrome/132.0.0.0 Safari/537.36","WebKit","Chrome","132.0.0.0","Windows","10.0","https://app.prolific.com/","en-US,en;q=0.9","6629517257384969d8995d78","67949641171f97c04e14fb34","679ab3a0eaa7dc34aebe73fa","","null","<img id='selected' src='G_5.jpg' height='90'> <img id='selected' src='G_7.jpg' height='90'> <img src='G_9.jpg' height='90'> <img src='G_3.jpg' height='90'> <img src='G_1.jpg' height='90'>","null","Learning example 0",""
"","","","","","html-button-response","37","124201","0.0-27.0","51","1","2025-01-29 23:03:11","af8d355d56820e421d246a7037deb6e6","97.148.119.241","Mozilla/5.0 (Windows NT 10.0; Win64; x64) AppleWebKit/537.36 (KHTML, like Gecko) Chrome/132.0.0.0 Safari/537.36","WebKit","Chrome","132.0.0.0","Windows","10.0","https://app.prolific.com/","en-US,en;q=0.9","6629517257384969d8995d78","67949641171f97c04e14fb34","679ab3a0eaa7dc34aebe73fa","","null","<img id='swapped' src='G_7.jpg' height='90'> <img id='swapped' src='G_5.jpg' height='90'> <img src='G_9.jpg' height='90'> <img src='G_3.jpg' height='90'> <img src='G_1.jpg' height='90'>","null","Learning example 0",""
"","","","","","html-button-response","38","138243","0.0-28.0-0.0-0.0","51","1","2025-01-29 23:03:11","af8d355d56820e421d246a7037deb6e6","97.148.119.241","Mozilla/5.0 (Windows NT 10.0; Win64; x64) AppleWebKit/537.36 (KHTML, like Gecko) Chrome/132.0.0.0 Safari/537.36","WebKit","Chrome","132.0.0.0","Windows","10.0","https://app.prolific.com/","en-US,en;q=0.9","6629517257384969d8995d78","67949641171f97c04e14fb34","679ab3a0eaa7dc34aebe73fa","","14038","<img id='swapped' src='G_7.jpg' height='90'> <img id='swapped' src='G_5.jpg' height='90'> <img src='G_9.jpg' height='90'> <img src='G_3.jpg' height='90'> <img src='G_1.jpg' height='90'>","0","Learning example 0",""
"","","","","","html-button-response","39","139478","0.0-28.1-0.1-0.1","51","1","2025-01-29 23:03:11","af8d355d56820e421d246a7037deb6e6","97.148.119.241","Mozilla/5.0 (Windows NT 10.0; Win64; x64) AppleWebKit/537.36 (KHTML, like Gecko) Chrome/132.0.0.0 Safari/537.36","WebKit","Chrome","132.0.0.0","Windows","10.0","https://app.prolific.com/","en-US,en;q=0.9","6629517257384969d8995d78","67949641171f97c04e14fb34","679ab3a0eaa7dc34aebe73fa","","1231","<img id='swapped' src='G_7.jpg' height='90'> <img id='swapped' src='G_5.jpg' height='90'> <img src='G_9.jpg' height='90'> <img src='G_3.jpg' height='90'> <img src='G_1.jpg' height='90'>","1","Learning example 0",""
"","","","","","html-button-response","40","139692","0.0-29.0","51","1","2025-01-29 23:03:11","af8d355d56820e421d246a7037deb6e6","97.148.119.241","Mozilla/5.0 (Windows NT 10.0; Win64; x64) AppleWebKit/537.36 (KHTML, like Gecko) Chrome/132.0.0.0 Safari/537.36","WebKit","Chrome","132.0.0.0","Windows","10.0","https://app.prolific.com/","en-US,en;q=0.9","6629517257384969d8995d78","67949641171f97c04e14fb34","679ab3a0eaa7dc34aebe73fa","","null","<img  src='G_7.jpg' height='90'> <img  src='G_5.jpg' height='90'> <img src='G_9.jpg' height='90'> <img src='G_3.jpg' height='90'> <img src='G_1.jpg' height='90'>","null","Learning example 0",""
"","","","","","html-button-response","41","140110","0.0-30.0","51","1","2025-01-29 23:03:11","af8d355d56820e421d246a7037deb6e6","97.148.119.241","Mozilla/5.0 (Windows NT 10.0; Win64; x64) AppleWebKit/537.36 (KHTML, like Gecko) Chrome/132.0.0.0 Safari/537.36","WebKit","Chrome","132.0.0.0","Windows","10.0","https://app.prolific.com/","en-US,en;q=0.9","6629517257384969d8995d78","67949641171f97c04e14fb34","679ab3a0eaa7dc34aebe73fa","","null","<img  src='G_7.jpg' height='90'> <img id='selected'  src='G_5.jpg' height='90'> <img src='G_9.jpg' height='90'> <img src='G_3.jpg' height='90'> <img src='G_1.jpg' height='90'>","null","Learning example 0",""
"","","","","","html-button-response","42","140418","0.0-31.0","51","1","2025-01-29 23:03:11","af8d355d56820e421d246a7037deb6e6","97.148.119.241","Mozilla/5.0 (Windows NT 10.0; Win64; x64) AppleWebKit/537.36 (KHTML, like Gecko) Chrome/132.0.0.0 Safari/537.36","WebKit","Chrome","132.0.0.0","Windows","10.0","https://app.prolific.com/","en-US,en;q=0.9","6629517257384969d8995d78","67949641171f97c04e14fb34","679ab3a0eaa7dc34aebe73fa","","null","<img  src='G_7.jpg' height='90'> <img id='selected'  src='G_5.jpg' height='90'> <img id='selected' src='G_9.jpg' height='90'> <img src='G_3.jpg' height='90'> <img src='G_1.jpg' height='90'>","null","Learning example 0",""
"","","","","","html-button-response","43","140738","0.0-32.0","51","1","2025-01-29 23:03:11","af8d355d56820e421d246a7037deb6e6","97.148.119.241","Mozilla/5.0 (Windows NT 10.0; Win64; x64) AppleWebKit/537.36 (KHTML, like Gecko) Chrome/132.0.0.0 Safari/537.36","WebKit","Chrome","132.0.0.0","Windows","10.0","https://app.prolific.com/","en-US,en;q=0.9","6629517257384969d8995d78","67949641171f97c04e14fb34","679ab3a0eaa7dc34aebe73fa","","null","<img  src='G_7.jpg' height='90'> <img id='selected'  src='G_5.jpg' height='90'> <img id='selected' src='G_9.jpg' height='90'> <img src='G_3.jpg' height='90'> <img src='G_1.jpg' height='90'>","null","Learning example 0",""
"","","","","","html-button-response","44","142058","0.0-33.0-0.0-0.0","51","1","2025-01-29 23:03:11","af8d355d56820e421d246a7037deb6e6","97.148.119.241","Mozilla/5.0 (Windows NT 10.0; Win64; x64) AppleWebKit/537.36 (KHTML, like Gecko) Chrome/132.0.0.0 Safari/537.36","WebKit","Chrome","132.0.0.0","Windows","10.0","https://app.prolific.com/","en-US,en;q=0.9","6629517257384969d8995d78","67949641171f97c04e14fb34","679ab3a0eaa7dc34aebe73fa","","1319","<img  src='G_7.jpg' height='90'> <img id='selected'  src='G_5.jpg' height='90'> <img id='selected' src='G_9.jpg' height='90'> <img src='G_3.jpg' height='90'> <img src='G_1.jpg' height='90'>","2","Learning example 0",""
"","","","","","html-button-response","45","143894","0.0-33.1-0.1-0.1","51","1","2025-01-29 23:03:11","af8d355d56820e421d246a7037deb6e6","97.148.119.241","Mozilla/5.0 (Windows NT 10.0; Win64; x64) AppleWebKit/537.36 (KHTML, like Gecko) Chrome/132.0.0.0 Safari/537.36","WebKit","Chrome","132.0.0.0","Windows","10.0","https://app.prolific.com/","en-US,en;q=0.9","6629517257384969d8995d78","67949641171f97c04e14fb34","679ab3a0eaa7dc34aebe73fa","","1832","<img  src='G_7.jpg' height='90'> <img id='selected'  src='G_5.jpg' height='90'> <img id='selected' src='G_9.jpg' height='90'> <img src='G_3.jpg' height='90'> <img src='G_1.jpg' height='90'>","3","Learning example 0",""
"","","","","","html-button-response","46","147058","0.0-33.2-0.2-0.2","51","1","2025-01-29 23:03:11","af8d355d56820e421d246a7037deb6e6","97.148.119.241","Mozilla/5.0 (Windows NT 10.0; Win64; x64) AppleWebKit/537.36 (KHTML, like Gecko) Chrome/132.0.0.0 Safari/537.36","WebKit","Chrome","132.0.0.0","Windows","10.0","https://app.prolific.com/","en-US,en;q=0.9","6629517257384969d8995d78","67949641171f97c04e14fb34","679ab3a0eaa7dc34aebe73fa","","3161","<img  src='G_7.jpg' height='90'> <img id='selected'  src='G_5.jpg' height='90'> <img id='selected' src='G_9.jpg' height='90'> <img src='G_3.jpg' height='90'> <img src='G_1.jpg' height='90'>","4","Learning example 0",""
"","","","","","html-button-response","47","149110","0.0-33.3-0.3-0.3","51","1","2025-01-29 23:03:11","af8d355d56820e421d246a7037deb6e6","97.148.119.241","Mozilla/5.0 (Windows NT 10.0; Win64; x64) AppleWebKit/537.36 (KHTML, like Gecko) Chrome/132.0.0.0 Safari/537.36","WebKit","Chrome","132.0.0.0","Windows","10.0","https://app.prolific.com/","en-US,en;q=0.9","6629517257384969d8995d78","67949641171f97c04e14fb34","679ab3a0eaa7dc34aebe73fa","","2051","<img  src='G_7.jpg' height='90'> <img id='selected'  src='G_5.jpg' height='90'> <img id='selected' src='G_9.jpg' height='90'> <img src='G_3.jpg' height='90'> <img src='G_1.jpg' height='90'>","2","Learning example 0",""
"","","","","","html-button-response","48","167576","0.0-33.4-0.4-0.4","51","1","2025-01-29 23:03:11","af8d355d56820e421d246a7037deb6e6","97.148.119.241","Mozilla/5.0 (Windows NT 10.0; Win64; x64) AppleWebKit/537.36 (KHTML, like Gecko) Chrome/132.0.0.0 Safari/537.36","WebKit","Chrome","132.0.0.0","Windows","10.0","https://app.prolific.com/","en-US,en;q=0.9","6629517257384969d8995d78","67949641171f97c04e14fb34","679ab3a0eaa7dc34aebe73fa","","18465","<img  src='G_7.jpg' height='90'> <img id='selected'  src='G_5.jpg' height='90'> <img id='selected' src='G_9.jpg' height='90'> <img src='G_3.jpg' height='90'> <img src='G_1.jpg' height='90'>","3","Learning example 0",""
"","","","","","html-button-response","49","168710","0.0-33.5-0.5-0.5","51","1","2025-01-29 23:03:11","af8d355d56820e421d246a7037deb6e6","97.148.119.241","Mozilla/5.0 (Windows NT 10.0; Win64; x64) AppleWebKit/537.36 (KHTML, like Gecko) Chrome/132.0.0.0 Safari/537.36","WebKit","Chrome","132.0.0.0","Windows","10.0","https://app.prolific.com/","en-US,en;q=0.9","6629517257384969d8995d78","67949641171f97c04e14fb34","679ab3a0eaa7dc34aebe73fa","","1132","<img  src='G_7.jpg' height='90'> <img id='selected'  src='G_5.jpg' height='90'> <img id='selected' src='G_9.jpg' height='90'> <img src='G_3.jpg' height='90'> <img src='G_1.jpg' height='90'>","4","Learning example 0",""
"","","","","","html-button-response","50","170262","0.0-33.6-0.6-0.6","51","1","2025-01-29 23:03:11","af8d355d56820e421d246a7037deb6e6","97.148.119.241","Mozilla/5.0 (Windows NT 10.0; Win64; x64) AppleWebKit/537.36 (KHTML, like Gecko) Chrome/132.0.0.0 Safari/537.36","WebKit","Chrome","132.0.0.0","Windows","10.0","https://app.prolific.com/","en-US,en;q=0.9","6629517257384969d8995d78","67949641171f97c04e14fb34","679ab3a0eaa7dc34aebe73fa","","1549","<img  src='G_7.jpg' height='90'> <img id='selected'  src='G_5.jpg' height='90'> <img id='selected' src='G_9.jpg' height='90'> <img src='G_3.jpg' height='90'> <img src='G_1.jpg' height='90'>","2","Learning example 0",""
"","","","","","html-button-response","51","172745","0.0-33.7-0.7-0.7","51","1","2025-01-29 23:03:11","af8d355d56820e421d246a7037deb6e6","97.148.119.241","Mozilla/5.0 (Windows NT 10.0; Win64; x64) AppleWebKit/537.36 (KHTML, like Gecko) Chrome/132.0.0.0 Safari/537.36","WebKit","Chrome","132.0.0.0","Windows","10.0","https://app.prolific.com/","en-US,en;q=0.9","6629517257384969d8995d78","67949641171f97c04e14fb34","679ab3a0eaa7dc34aebe73fa","","2477","<img  src='G_7.jpg' height='90'> <img id='selected'  src='G_5.jpg' height='90'> <img id='selected' src='G_9.jpg' height='90'> <img src='G_3.jpg' height='90'> <img src='G_1.jpg' height='90'>","1","Learning example 0",""
"","","","","","html-button-response","52","172958","0.0-34.0","51","1","2025-01-29 23:03:11","af8d355d56820e421d246a7037deb6e6","97.148.119.241","Mozilla/5.0 (Windows NT 10.0; Win64; x64) AppleWebKit/537.36 (KHTML, like Gecko) Chrome/132.0.0.0 Safari/537.36","WebKit","Chrome","132.0.0.0","Windows","10.0","https://app.prolific.com/","en-US,en;q=0.9","6629517257384969d8995d78","67949641171f97c04e14fb34","679ab3a0eaa7dc34aebe73fa","","null","<img  src='G_7.jpg' height='90'> <img   src='G_5.jpg' height='90'> <img  src='G_9.jpg' height='90'> <img src='G_3.jpg' height='90'> <img src='G_1.jpg' height='90'>","null","Learning example 0",""
"","","","","","html-button-response","53","173362","0.0-35.0","51","1","2025-01-29 23:03:11","af8d355d56820e421d246a7037deb6e6","97.148.119.241","Mozilla/5.0 (Windows NT 10.0; Win64; x64) AppleWebKit/537.36 (KHTML, like Gecko) Chrome/132.0.0.0 Safari/537.36","WebKit","Chrome","132.0.0.0","Windows","10.0","https://app.prolific.com/","en-US,en;q=0.9","6629517257384969d8995d78","67949641171f97c04e14fb34","679ab3a0eaa7dc34aebe73fa","","null","<img  src='G_7.jpg' height='90'> <img   src='G_5.jpg' height='90'> <img id='selected'  src='G_9.jpg' height='90'> <img src='G_3.jpg' height='90'> <img src='G_1.jpg' height='90'>","null","Learning example 0",""
"","","","","","html-button-response","54","173665","0.0-36.0","51","1","2025-01-29 23:03:11","af8d355d56820e421d246a7037deb6e6","97.148.119.241","Mozilla/5.0 (Windows NT 10.0; Win64; x64) AppleWebKit/537.36 (KHTML, like Gecko) Chrome/132.0.0.0 Safari/537.36","WebKit","Chrome","132.0.0.0","Windows","10.0","https://app.prolific.com/","en-US,en;q=0.9","6629517257384969d8995d78","67949641171f97c04e14fb34","679ab3a0eaa7dc34aebe73fa","","null","<img  src='G_7.jpg' height='90'> <img   src='G_5.jpg' height='90'> <img id='selected'  src='G_9.jpg' height='90'> <img id='selected' src='G_3.jpg' height='90'> <img src='G_1.jpg' height='90'>","null","Learning example 0",""
"","","","","","html-button-response","55","173979","0.0-37.0","51","1","2025-01-29 23:03:11","af8d355d56820e421d246a7037deb6e6","97.148.119.241","Mozilla/5.0 (Windows NT 10.0; Win64; x64) AppleWebKit/537.36 (KHTML, like Gecko) Chrome/132.0.0.0 Safari/537.36","WebKit","Chrome","132.0.0.0","Windows","10.0","https://app.prolific.com/","en-US,en;q=0.9","6629517257384969d8995d78","67949641171f97c04e14fb34","679ab3a0eaa7dc34aebe73fa","","null","<img  src='G_7.jpg' height='90'> <img   src='G_5.jpg' height='90'> <img id='selected'  src='G_9.jpg' height='90'> <img id='selected' src='G_3.jpg' height='90'> <img src='G_1.jpg' height='90'>","null","Learning example 0",""
"","","","","","html-button-response","56","176026","0.0-38.0-0.0-0.0","51","1","2025-01-29 23:03:11","af8d355d56820e421d246a7037deb6e6","97.148.119.241","Mozilla/5.0 (Windows NT 10.0; Win64; x64) AppleWebKit/537.36 (KHTML, like Gecko) Chrome/132.0.0.0 Safari/537.36","WebKit","Chrome","132.0.0.0","Windows","10.0","https://app.prolific.com/","en-US,en;q=0.9","6629517257384969d8995d78","67949641171f97c04e14fb34","679ab3a0eaa7dc34aebe73fa","","2045","<img  src='G_7.jpg' height='90'> <img   src='G_5.jpg' height='90'> <img id='selected'  src='G_9.jpg' height='90'> <img id='selected' src='G_3.jpg' height='90'> <img src='G_1.jpg' height='90'>","3","Learning example 0",""
"","","","","","html-button-response","57","178228","0.0-38.1-0.1-0.1","51","1","2025-01-29 23:03:11","af8d355d56820e421d246a7037deb6e6","97.148.119.241","Mozilla/5.0 (Windows NT 10.0; Win64; x64) AppleWebKit/537.36 (KHTML, like Gecko) Chrome/132.0.0.0 Safari/537.36","WebKit","Chrome","132.0.0.0","Windows","10.0","https://app.prolific.com/","en-US,en;q=0.9","6629517257384969d8995d78","67949641171f97c04e14fb34","679ab3a0eaa7dc34aebe73fa","","2198","<img  src='G_7.jpg' height='90'> <img   src='G_5.jpg' height='90'> <img id='selected'  src='G_9.jpg' height='90'> <img id='selected' src='G_3.jpg' height='90'> <img src='G_1.jpg' height='90'>","2","Learning example 0",""
"","","","","","html-button-response","58","178439","0.0-39.0","51","1","2025-01-29 23:03:11","af8d355d56820e421d246a7037deb6e6","97.148.119.241","Mozilla/5.0 (Windows NT 10.0; Win64; x64) AppleWebKit/537.36 (KHTML, like Gecko) Chrome/132.0.0.0 Safari/537.36","WebKit","Chrome","132.0.0.0","Windows","10.0","https://app.prolific.com/","en-US,en;q=0.9","6629517257384969d8995d78","67949641171f97c04e14fb34","679ab3a0eaa7dc34aebe73fa","","null","<img  src='G_7.jpg' height='90'> <img   src='G_5.jpg' height='90'> <img   src='G_9.jpg' height='90'> <img  src='G_3.jpg' height='90'> <img src='G_1.jpg' height='90'>","null","Learning example 0",""
"","","","","","html-button-response","59","178845","0.0-40.0","51","1","2025-01-29 23:03:11","af8d355d56820e421d246a7037deb6e6","97.148.119.241","Mozilla/5.0 (Windows NT 10.0; Win64; x64) AppleWebKit/537.36 (KHTML, like Gecko) Chrome/132.0.0.0 Safari/537.36","WebKit","Chrome","132.0.0.0","Windows","10.0","https://app.prolific.com/","en-US,en;q=0.9","6629517257384969d8995d78","67949641171f97c04e14fb34","679ab3a0eaa7dc34aebe73fa","","null","<img  src='G_7.jpg' height='90'> <img   src='G_5.jpg' height='90'> <img   src='G_9.jpg' height='90'> <img id='selected'  src='G_3.jpg' height='90'> <img src='G_1.jpg' height='90'>","null","Learning example 0",""
"","","","","","html-button-response","60","179150","0.0-41.0","51","1","2025-01-29 23:03:11","af8d355d56820e421d246a7037deb6e6","97.148.119.241","Mozilla/5.0 (Windows NT 10.0; Win64; x64) AppleWebKit/537.36 (KHTML, like Gecko) Chrome/132.0.0.0 Safari/537.36","WebKit","Chrome","132.0.0.0","Windows","10.0","https://app.prolific.com/","en-US,en;q=0.9","6629517257384969d8995d78","67949641171f97c04e14fb34","679ab3a0eaa7dc34aebe73fa","","null","<img  src='G_7.jpg' height='90'> <img   src='G_5.jpg' height='90'> <img   src='G_9.jpg' height='90'> <img id='selected'  src='G_3.jpg' height='90'> <img id='selected' src='G_1.jpg' height='90'>","null","Learning example 0",""
"","","","","","html-button-response","61","179467","0.0-42.0","51","1","2025-01-29 23:03:11","af8d355d56820e421d246a7037deb6e6","97.148.119.241","Mozilla/5.0 (Windows NT 10.0; Win64; x64) AppleWebKit/537.36 (KHTML, like Gecko) Chrome/132.0.0.0 Safari/537.36","WebKit","Chrome","132.0.0.0","Windows","10.0","https://app.prolific.com/","en-US,en;q=0.9","6629517257384969d8995d78","67949641171f97c04e14fb34","679ab3a0eaa7dc34aebe73fa","","null","<img  src='G_7.jpg' height='90'> <img   src='G_5.jpg' height='90'> <img   src='G_9.jpg' height='90'> <img id='selected'  src='G_3.jpg' height='90'> <img id='selected' src='G_1.jpg' height='90'>","null","Learning example 0",""
"","","","","","html-button-response","62","180628","0.0-43.0-0.0-0.0","51","1","2025-01-29 23:03:11","af8d355d56820e421d246a7037deb6e6","97.148.119.241","Mozilla/5.0 (Windows NT 10.0; Win64; x64) AppleWebKit/537.36 (KHTML, like Gecko) Chrome/132.0.0.0 Safari/537.36","WebKit","Chrome","132.0.0.0","Windows","10.0","https://app.prolific.com/","en-US,en;q=0.9","6629517257384969d8995d78","67949641171f97c04e14fb34","679ab3a0eaa7dc34aebe73fa","","1156","<img  src='G_7.jpg' height='90'> <img   src='G_5.jpg' height='90'> <img   src='G_9.jpg' height='90'> <img id='selected'  src='G_3.jpg' height='90'> <img id='selected' src='G_1.jpg' height='90'>","4","Learning example 0",""
"","","","","","html-button-response","63","182328","0.0-43.1-0.1-0.1","51","1","2025-01-29 23:03:11","af8d355d56820e421d246a7037deb6e6","97.148.119.241","Mozilla/5.0 (Windows NT 10.0; Win64; x64) AppleWebKit/537.36 (KHTML, like Gecko) Chrome/132.0.0.0 Safari/537.36","WebKit","Chrome","132.0.0.0","Windows","10.0","https://app.prolific.com/","en-US,en;q=0.9","6629517257384969d8995d78","67949641171f97c04e14fb34","679ab3a0eaa7dc34aebe73fa","","1695","<img  src='G_7.jpg' height='90'> <img   src='G_5.jpg' height='90'> <img   src='G_9.jpg' height='90'> <img id='selected'  src='G_3.jpg' height='90'> <img id='selected' src='G_1.jpg' height='90'>","3","Learning example 0",""
"","","","","","html-button-response","64","182540","0.0-44.0","51","1","2025-01-29 23:03:11","af8d355d56820e421d246a7037deb6e6","97.148.119.241","Mozilla/5.0 (Windows NT 10.0; Win64; x64) AppleWebKit/537.36 (KHTML, like Gecko) Chrome/132.0.0.0 Safari/537.36","WebKit","Chrome","132.0.0.0","Windows","10.0","https://app.prolific.com/","en-US,en;q=0.9","6629517257384969d8995d78","67949641171f97c04e14fb34","679ab3a0eaa7dc34aebe73fa","","null","<img  src='G_7.jpg' height='90'> <img   src='G_5.jpg' height='90'> <img   src='G_9.jpg' height='90'> <img   src='G_3.jpg' height='90'> <img  src='G_1.jpg' height='90'>","null","Learning example 0",""
"","","","","","html-keyboard-response","65","189473","0.0-45.0","51","1","2025-01-29 23:03:11","af8d355d56820e421d246a7037deb6e6","97.148.119.241","Mozilla/5.0 (Windows NT 10.0; Win64; x64) AppleWebKit/537.36 (KHTML, like Gecko) Chrome/132.0.0.0 Safari/537.36","WebKit","Chrome","132.0.0.0","Windows","10.0","https://app.prolific.com/","en-US,en;q=0.9","6629517257384969d8995d78","67949641171f97c04e14fb34","679ab3a0eaa7dc34aebe73fa","","6931","[""Final order was 1,2,3,4,5. The initial order was 2,1,3,4,5.<br>It took 1 swaps to sort it correctly with Omgne Sort. <br><br>Press Enter to continue.""]","enter","",""
"","","","","","html-keyboard-response","66","192426","0.0-46.0","51","1","2025-01-29 23:03:11","af8d355d56820e421d246a7037deb6e6","97.148.119.241","Mozilla/5.0 (Windows NT 10.0; Win64; x64) AppleWebKit/537.36 (KHTML, like Gecko) Chrome/132.0.0.0 Safari/537.36","WebKit","Chrome","132.0.0.0","Windows","10.0","https://app.prolific.com/","en-US,en;q=0.9","6629517257384969d8995d78","67949641171f97c04e14fb34","679ab3a0eaa7dc34aebe73fa","","2951","[""Example 2<br><br>You will watch Omnge Sort in action. Try to identify any patterns in the comparisons made by this method. <br><br>Press Enter to continue.""]","enter","",""
"","","","","","html-keyboard-response","67","192928","0.0-47.0","51","1","2025-01-29 23:03:11","af8d355d56820e421d246a7037deb6e6","97.148.119.241","Mozilla/5.0 (Windows NT 10.0; Win64; x64) AppleWebKit/537.36 (KHTML, like Gecko) Chrome/132.0.0.0 Safari/537.36","WebKit","Chrome","132.0.0.0","Windows","10.0","https://app.prolific.com/","en-US,en;q=0.9","6629517257384969d8995d78","67949641171f97c04e14fb34","679ab3a0eaa7dc34aebe73fa","","null","<img id='selected' src='G_8.jpg' height='90'> <img src='G_7.jpg' height='90'> <img src='G_6.jpg' height='90'> <img src='G_4.jpg' height='90'> <img src='G_5.jpg' height='90'> <img src='G_2.jpg' height='90'> <img src='G_3.jpg' height='90'> <img src='G_1.jpg' height='90'>","null","Animation1",""
"","","","","","html-keyboard-response","68","193439","0.0-48.0","51","1","2025-01-29 23:03:11","af8d355d56820e421d246a7037deb6e6","97.148.119.241","Mozilla/5.0 (Windows NT 10.0; Win64; x64) AppleWebKit/537.36 (KHTML, like Gecko) Chrome/132.0.0.0 Safari/537.36","WebKit","Chrome","132.0.0.0","Windows","10.0","https://app.prolific.com/","en-US,en;q=0.9","6629517257384969d8995d78","67949641171f97c04e14fb34","679ab3a0eaa7dc34aebe73fa","","null","<img id='selected' src='G_8.jpg' height='90'> <img id='selected' src='G_7.jpg' height='90'> <img src='G_6.jpg' height='90'> <img src='G_4.jpg' height='90'> <img src='G_5.jpg' height='90'> <img src='G_2.jpg' height='90'> <img src='G_3.jpg' height='90'> <img src='G_1.jpg' height='90'>","null","Animation1",""
"","","","","","html-keyboard-response","69","193954","0.0-49.0","51","1","2025-01-29 23:03:11","af8d355d56820e421d246a7037deb6e6","97.148.119.241","Mozilla/5.0 (Windows NT 10.0; Win64; x64) AppleWebKit/537.36 (KHTML, like Gecko) Chrome/132.0.0.0 Safari/537.36","WebKit","Chrome","132.0.0.0","Windows","10.0","https://app.prolific.com/","en-US,en;q=0.9","6629517257384969d8995d78","67949641171f97c04e14fb34","679ab3a0eaa7dc34aebe73fa","","null","<img id='selected' src='G_8.jpg' height='90'> <img id='selected' src='G_7.jpg' height='90'> <img src='G_6.jpg' height='90'> <img src='G_4.jpg' height='90'> <img src='G_5.jpg' height='90'> <img src='G_2.jpg' height='90'> <img src='G_3.jpg' height='90'> <img src='G_1.jpg' height='90'>","null","Animation1",""
"","","","","","html-keyboard-response","70","194260","0.0-50.0","51","1","2025-01-29 23:03:11","af8d355d56820e421d246a7037deb6e6","97.148.119.241","Mozilla/5.0 (Windows NT 10.0; Win64; x64) AppleWebKit/537.36 (KHTML, like Gecko) Chrome/132.0.0.0 Safari/537.36","WebKit","Chrome","132.0.0.0","Windows","10.0","https://app.prolific.com/","en-US,en;q=0.9","6629517257384969d8995d78","67949641171f97c04e14fb34","679ab3a0eaa7dc34aebe73fa","","null","<img  src='G_8.jpg' height='90'> <img  src='G_7.jpg' height='90'> <img src='G_6.jpg' height='90'> <img src='G_4.jpg' height='90'> <img src='G_5.jpg' height='90'> <img src='G_2.jpg' height='90'> <img src='G_3.jpg' height='90'> <img src='G_1.jpg' height='90'>","null","Animation1",""
"","","","","","html-keyboard-response","71","194774","0.0-51.0","51","1","2025-01-29 23:03:11","af8d355d56820e421d246a7037deb6e6","97.148.119.241","Mozilla/5.0 (Windows NT 10.0; Win64; x64) AppleWebKit/537.36 (KHTML, like Gecko) Chrome/132.0.0.0 Safari/537.36","WebKit","Chrome","132.0.0.0","Windows","10.0","https://app.prolific.com/","en-US,en;q=0.9","6629517257384969d8995d78","67949641171f97c04e14fb34","679ab3a0eaa7dc34aebe73fa","","null","<img  src='G_8.jpg' height='90'> <img id='selected'  src='G_7.jpg' height='90'> <img src='G_6.jpg' height='90'> <img src='G_4.jpg' height='90'> <img src='G_5.jpg' height='90'> <img src='G_2.jpg' height='90'> <img src='G_3.jpg' height='90'> <img src='G_1.jpg' height='90'>","null","Animation1",""
"","","","","","html-keyboard-response","72","195287","0.0-52.0","51","1","2025-01-29 23:03:11","af8d355d56820e421d246a7037deb6e6","97.148.119.241","Mozilla/5.0 (Windows NT 10.0; Win64; x64) AppleWebKit/537.36 (KHTML, like Gecko) Chrome/132.0.0.0 Safari/537.36","WebKit","Chrome","132.0.0.0","Windows","10.0","https://app.prolific.com/","en-US,en;q=0.9","6629517257384969d8995d78","67949641171f97c04e14fb34","679ab3a0eaa7dc34aebe73fa","","null","<img  src='G_8.jpg' height='90'> <img id='selected'  src='G_7.jpg' height='90'> <img id='selected' src='G_6.jpg' height='90'> <img src='G_4.jpg' height='90'> <img src='G_5.jpg' height='90'> <img src='G_2.jpg' height='90'> <img src='G_3.jpg' height='90'> <img src='G_1.jpg' height='90'>","null","Animation1",""
"","","","","","html-keyboard-response","73","195805","0.0-53.0","51","1","2025-01-29 23:03:11","af8d355d56820e421d246a7037deb6e6","97.148.119.241","Mozilla/5.0 (Windows NT 10.0; Win64; x64) AppleWebKit/537.36 (KHTML, like Gecko) Chrome/132.0.0.0 Safari/537.36","WebKit","Chrome","132.0.0.0","Windows","10.0","https://app.prolific.com/","en-US,en;q=0.9","6629517257384969d8995d78","67949641171f97c04e14fb34","679ab3a0eaa7dc34aebe73fa","","null","<img  src='G_8.jpg' height='90'> <img id='swapped' src='G_6.jpg' height='90'> <img id='swapped'  src='G_7.jpg' height='90'> <img src='G_4.jpg' height='90'> <img src='G_5.jpg' height='90'> <img src='G_2.jpg' height='90'> <img src='G_3.jpg' height='90'> <img src='G_1.jpg' height='90'>","null","Animation1",""
"","","","","","html-keyboard-response","74","196118","0.0-54.0","51","1","2025-01-29 23:03:11","af8d355d56820e421d246a7037deb6e6","97.148.119.241","Mozilla/5.0 (Windows NT 10.0; Win64; x64) AppleWebKit/537.36 (KHTML, like Gecko) Chrome/132.0.0.0 Safari/537.36","WebKit","Chrome","132.0.0.0","Windows","10.0","https://app.prolific.com/","en-US,en;q=0.9","6629517257384969d8995d78","67949641171f97c04e14fb34","679ab3a0eaa7dc34aebe73fa","","null","<img  src='G_8.jpg' height='90'> <img  src='G_6.jpg' height='90'> <img   src='G_7.jpg' height='90'> <img src='G_4.jpg' height='90'> <img src='G_5.jpg' height='90'> <img src='G_2.jpg' height='90'> <img src='G_3.jpg' height='90'> <img src='G_1.jpg' height='90'>","null","Animation1",""
"","","","","","html-keyboard-response","75","196622","0.0-55.0","51","1","2025-01-29 23:03:11","af8d355d56820e421d246a7037deb6e6","97.148.119.241","Mozilla/5.0 (Windows NT 10.0; Win64; x64) AppleWebKit/537.36 (KHTML, like Gecko) Chrome/132.0.0.0 Safari/537.36","WebKit","Chrome","132.0.0.0","Windows","10.0","https://app.prolific.com/","en-US,en;q=0.9","6629517257384969d8995d78","67949641171f97c04e14fb34","679ab3a0eaa7dc34aebe73fa","","null","<img id='selected'  src='G_8.jpg' height='90'> <img  src='G_6.jpg' height='90'> <img   src='G_7.jpg' height='90'> <img src='G_4.jpg' height='90'> <img src='G_5.jpg' height='90'> <img src='G_2.jpg' height='90'> <img src='G_3.jpg' height='90'> <img src='G_1.jpg' height='90'>","null","Animation1",""
"","","","","","html-keyboard-response","76","197138","0.0-56.0","51","1","2025-01-29 23:03:11","af8d355d56820e421d246a7037deb6e6","97.148.119.241","Mozilla/5.0 (Windows NT 10.0; Win64; x64) AppleWebKit/537.36 (KHTML, like Gecko) Chrome/132.0.0.0 Safari/537.36","WebKit","Chrome","132.0.0.0","Windows","10.0","https://app.prolific.com/","en-US,en;q=0.9","6629517257384969d8995d78","67949641171f97c04e14fb34","679ab3a0eaa7dc34aebe73fa","","null","<img id='selected'  src='G_8.jpg' height='90'> <img id='selected'  src='G_6.jpg' height='90'> <img   src='G_7.jpg' height='90'> <img src='G_4.jpg' height='90'> <img src='G_5.jpg' height='90'> <img src='G_2.jpg' height='90'> <img src='G_3.jpg' height='90'> <img src='G_1.jpg' height='90'>","null","Animation1",""
"","","","","","html-keyboard-response","77","197654","0.0-57.0","51","1","2025-01-29 23:03:11","af8d355d56820e421d246a7037deb6e6","97.148.119.241","Mozilla/5.0 (Windows NT 10.0; Win64; x64) AppleWebKit/537.36 (KHTML, like Gecko) Chrome/132.0.0.0 Safari/537.36","WebKit","Chrome","132.0.0.0","Windows","10.0","https://app.prolific.com/","en-US,en;q=0.9","6629517257384969d8995d78","67949641171f97c04e14fb34","679ab3a0eaa7dc34aebe73fa","","null","<img id='swapped'  src='G_6.jpg' height='90'> <img id='swapped'  src='G_8.jpg' height='90'> <img   src='G_7.jpg' height='90'> <img src='G_4.jpg' height='90'> <img src='G_5.jpg' height='90'> <img src='G_2.jpg' height='90'> <img src='G_3.jpg' height='90'> <img src='G_1.jpg' height='90'>","null","Animation1",""
"","","","","","html-keyboard-response","78","197957","0.0-58.0","51","1","2025-01-29 23:03:11","af8d355d56820e421d246a7037deb6e6","97.148.119.241","Mozilla/5.0 (Windows NT 10.0; Win64; x64) AppleWebKit/537.36 (KHTML, like Gecko) Chrome/132.0.0.0 Safari/537.36","WebKit","Chrome","132.0.0.0","Windows","10.0","https://app.prolific.com/","en-US,en;q=0.9","6629517257384969d8995d78","67949641171f97c04e14fb34","679ab3a0eaa7dc34aebe73fa","","null","<img   src='G_6.jpg' height='90'> <img   src='G_8.jpg' height='90'> <img   src='G_7.jpg' height='90'> <img src='G_4.jpg' height='90'> <img src='G_5.jpg' height='90'> <img src='G_2.jpg' height='90'> <img src='G_3.jpg' height='90'> <img src='G_1.jpg' height='90'>","null","Animation1",""
"","","","","","html-keyboard-response","79","198463","0.0-59.0","51","1","2025-01-29 23:03:11","af8d355d56820e421d246a7037deb6e6","97.148.119.241","Mozilla/5.0 (Windows NT 10.0; Win64; x64) AppleWebKit/537.36 (KHTML, like Gecko) Chrome/132.0.0.0 Safari/537.36","WebKit","Chrome","132.0.0.0","Windows","10.0","https://app.prolific.com/","en-US,en;q=0.9","6629517257384969d8995d78","67949641171f97c04e14fb34","679ab3a0eaa7dc34aebe73fa","","null","<img   src='G_6.jpg' height='90'> <img   src='G_8.jpg' height='90'> <img id='selected'   src='G_7.jpg' height='90'> <img src='G_4.jpg' height='90'> <img src='G_5.jpg' height='90'> <img src='G_2.jpg' height='90'> <img src='G_3.jpg' height='90'> <img src='G_1.jpg' height='90'>","null","Animation1",""
"","","","","","html-keyboard-response","80","198969","0.0-60.0","51","1","2025-01-29 23:03:11","af8d355d56820e421d246a7037deb6e6","97.148.119.241","Mozilla/5.0 (Windows NT 10.0; Win64; x64) AppleWebKit/537.36 (KHTML, like Gecko) Chrome/132.0.0.0 Safari/537.36","WebKit","Chrome","132.0.0.0","Windows","10.0","https://app.prolific.com/","en-US,en;q=0.9","6629517257384969d8995d78","67949641171f97c04e14fb34","679ab3a0eaa7dc34aebe73fa","","null","<img   src='G_6.jpg' height='90'> <img   src='G_8.jpg' height='90'> <img id='selected'   src='G_7.jpg' height='90'> <img id='selected' src='G_4.jpg' height='90'> <img src='G_5.jpg' height='90'> <img src='G_2.jpg' height='90'> <img src='G_3.jpg' height='90'> <img src='G_1.jpg' height='90'>","null","Animation1",""
"","","","","","html-keyboard-response","81","199474","0.0-61.0","51","1","2025-01-29 23:03:11","af8d355d56820e421d246a7037deb6e6","97.148.119.241","Mozilla/5.0 (Windows NT 10.0; Win64; x64) AppleWebKit/537.36 (KHTML, like Gecko) Chrome/132.0.0.0 Safari/537.36","WebKit","Chrome","132.0.0.0","Windows","10.0","https://app.prolific.com/","en-US,en;q=0.9","6629517257384969d8995d78","67949641171f97c04e14fb34","679ab3a0eaa7dc34aebe73fa","","null","<img   src='G_6.jpg' height='90'> <img   src='G_8.jpg' height='90'> <img id='swapped' src='G_4.jpg' height='90'> <img id='swapped'   src='G_7.jpg' height='90'> <img src='G_5.jpg' height='90'> <img src='G_2.jpg' height='90'> <img src='G_3.jpg' height='90'> <img src='G_1.jpg' height='90'>","null","Animation1",""
"","","","","","html-keyboard-response","82","199785","0.0-62.0","51","1","2025-01-29 23:03:11","af8d355d56820e421d246a7037deb6e6","97.148.119.241","Mozilla/5.0 (Windows NT 10.0; Win64; x64) AppleWebKit/537.36 (KHTML, like Gecko) Chrome/132.0.0.0 Safari/537.36","WebKit","Chrome","132.0.0.0","Windows","10.0","https://app.prolific.com/","en-US,en;q=0.9","6629517257384969d8995d78","67949641171f97c04e14fb34","679ab3a0eaa7dc34aebe73fa","","null","<img   src='G_6.jpg' height='90'> <img   src='G_8.jpg' height='90'> <img  src='G_4.jpg' height='90'> <img    src='G_7.jpg' height='90'> <img src='G_5.jpg' height='90'> <img src='G_2.jpg' height='90'> <img src='G_3.jpg' height='90'> <img src='G_1.jpg' height='90'>","null","Animation1",""
"","","","","","html-keyboard-response","83","200289","0.0-63.0","51","1","2025-01-29 23:03:11","af8d355d56820e421d246a7037deb6e6","97.148.119.241","Mozilla/5.0 (Windows NT 10.0; Win64; x64) AppleWebKit/537.36 (KHTML, like Gecko) Chrome/132.0.0.0 Safari/537.36","WebKit","Chrome","132.0.0.0","Windows","10.0","https://app.prolific.com/","en-US,en;q=0.9","6629517257384969d8995d78","67949641171f97c04e14fb34","679ab3a0eaa7dc34aebe73fa","","null","<img   src='G_6.jpg' height='90'> <img id='selected'   src='G_8.jpg' height='90'> <img  src='G_4.jpg' height='90'> <img    src='G_7.jpg' height='90'> <img src='G_5.jpg' height='90'> <img src='G_2.jpg' height='90'> <img src='G_3.jpg' height='90'> <img src='G_1.jpg' height='90'>","null","Animation1",""
"","","","","","html-keyboard-response","84","200805","0.0-64.0","51","1","2025-01-29 23:03:11","af8d355d56820e421d246a7037deb6e6","97.148.119.241","Mozilla/5.0 (Windows NT 10.0; Win64; x64) AppleWebKit/537.36 (KHTML, like Gecko) Chrome/132.0.0.0 Safari/537.36","WebKit","Chrome","132.0.0.0","Windows","10.0","https://app.prolific.com/","en-US,en;q=0.9","6629517257384969d8995d78","67949641171f97c04e14fb34","679ab3a0eaa7dc34aebe73fa","","null","<img   src='G_6.jpg' height='90'> <img id='selected'   src='G_8.jpg' height='90'> <img id='selected'  src='G_4.jpg' height='90'> <img    src='G_7.jpg' height='90'> <img src='G_5.jpg' height='90'> <img src='G_2.jpg' height='90'> <img src='G_3.jpg' height='90'> <img src='G_1.jpg' height='90'>","null","Animation1",""
"","","","","","html-keyboard-response","85","201322","0.0-65.0","51","1","2025-01-29 23:03:11","af8d355d56820e421d246a7037deb6e6","97.148.119.241","Mozilla/5.0 (Windows NT 10.0; Win64; x64) AppleWebKit/537.36 (KHTML, like Gecko) Chrome/132.0.0.0 Safari/537.36","WebKit","Chrome","132.0.0.0","Windows","10.0","https://app.prolific.com/","en-US,en;q=0.9","6629517257384969d8995d78","67949641171f97c04e14fb34","679ab3a0eaa7dc34aebe73fa","","null","<img   src='G_6.jpg' height='90'> <img id='swapped'  src='G_4.jpg' height='90'> <img id='swapped'   src='G_8.jpg' height='90'> <img    src='G_7.jpg' height='90'> <img src='G_5.jpg' height='90'> <img src='G_2.jpg' height='90'> <img src='G_3.jpg' height='90'> <img src='G_1.jpg' height='90'>","null","Animation1",""
"","","","","","html-keyboard-response","86","201635","0.0-66.0","51","1","2025-01-29 23:03:11","af8d355d56820e421d246a7037deb6e6","97.148.119.241","Mozilla/5.0 (Windows NT 10.0; Win64; x64) AppleWebKit/537.36 (KHTML, like Gecko) Chrome/132.0.0.0 Safari/537.36","WebKit","Chrome","132.0.0.0","Windows","10.0","https://app.prolific.com/","en-US,en;q=0.9","6629517257384969d8995d78","67949641171f97c04e14fb34","679ab3a0eaa7dc34aebe73fa","","null","<img   src='G_6.jpg' height='90'> <img   src='G_4.jpg' height='90'> <img    src='G_8.jpg' height='90'> <img    src='G_7.jpg' height='90'> <img src='G_5.jpg' height='90'> <img src='G_2.jpg' height='90'> <img src='G_3.jpg' height='90'> <img src='G_1.jpg' height='90'>","null","Animation1",""
"","","","","","html-keyboard-response","87","202139","0.0-67.0","51","1","2025-01-29 23:03:11","af8d355d56820e421d246a7037deb6e6","97.148.119.241","Mozilla/5.0 (Windows NT 10.0; Win64; x64) AppleWebKit/537.36 (KHTML, like Gecko) Chrome/132.0.0.0 Safari/537.36","WebKit","Chrome","132.0.0.0","Windows","10.0","https://app.prolific.com/","en-US,en;q=0.9","6629517257384969d8995d78","67949641171f97c04e14fb34","679ab3a0eaa7dc34aebe73fa","","null","<img id='selected'   src='G_6.jpg' height='90'> <img   src='G_4.jpg' height='90'> <img    src='G_8.jpg' height='90'> <img    src='G_7.jpg' height='90'> <img src='G_5.jpg' height='90'> <img src='G_2.jpg' height='90'> <img src='G_3.jpg' height='90'> <img src='G_1.jpg' height='90'>","null","Animation1",""
"","","","","","html-keyboard-response","88","202655","0.0-68.0","51","1","2025-01-29 23:03:11","af8d355d56820e421d246a7037deb6e6","97.148.119.241","Mozilla/5.0 (Windows NT 10.0; Win64; x64) AppleWebKit/537.36 (KHTML, like Gecko) Chrome/132.0.0.0 Safari/537.36","WebKit","Chrome","132.0.0.0","Windows","10.0","https://app.prolific.com/","en-US,en;q=0.9","6629517257384969d8995d78","67949641171f97c04e14fb34","679ab3a0eaa7dc34aebe73fa","","null","<img id='selected'   src='G_6.jpg' height='90'> <img id='selected'   src='G_4.jpg' height='90'> <img    src='G_8.jpg' height='90'> <img    src='G_7.jpg' height='90'> <img src='G_5.jpg' height='90'> <img src='G_2.jpg' height='90'> <img src='G_3.jpg' height='90'> <img src='G_1.jpg' height='90'>","null","Animation1",""
"","","","","","html-keyboard-response","89","203172","0.0-69.0","51","1","2025-01-29 23:03:11","af8d355d56820e421d246a7037deb6e6","97.148.119.241","Mozilla/5.0 (Windows NT 10.0; Win64; x64) AppleWebKit/537.36 (KHTML, like Gecko) Chrome/132.0.0.0 Safari/537.36","WebKit","Chrome","132.0.0.0","Windows","10.0","https://app.prolific.com/","en-US,en;q=0.9","6629517257384969d8995d78","67949641171f97c04e14fb34","679ab3a0eaa7dc34aebe73fa","","null","<img id='swapped'   src='G_4.jpg' height='90'> <img id='swapped'   src='G_6.jpg' height='90'> <img    src='G_8.jpg' height='90'> <img    src='G_7.jpg' height='90'> <img src='G_5.jpg' height='90'> <img src='G_2.jpg' height='90'> <img src='G_3.jpg' height='90'> <img src='G_1.jpg' height='90'>","null","Animation1",""
"","","","","","html-keyboard-response","90","203485","0.0-70.0","51","1","2025-01-29 23:03:11","af8d355d56820e421d246a7037deb6e6","97.148.119.241","Mozilla/5.0 (Windows NT 10.0; Win64; x64) AppleWebKit/537.36 (KHTML, like Gecko) Chrome/132.0.0.0 Safari/537.36","WebKit","Chrome","132.0.0.0","Windows","10.0","https://app.prolific.com/","en-US,en;q=0.9","6629517257384969d8995d78","67949641171f97c04e14fb34","679ab3a0eaa7dc34aebe73fa","","null","<img    src='G_4.jpg' height='90'> <img    src='G_6.jpg' height='90'> <img    src='G_8.jpg' height='90'> <img    src='G_7.jpg' height='90'> <img src='G_5.jpg' height='90'> <img src='G_2.jpg' height='90'> <img src='G_3.jpg' height='90'> <img src='G_1.jpg' height='90'>","null","Animation1",""
"","","","","","html-keyboard-response","91","204005","0.0-71.0","51","1","2025-01-29 23:03:11","af8d355d56820e421d246a7037deb6e6","97.148.119.241","Mozilla/5.0 (Windows NT 10.0; Win64; x64) AppleWebKit/537.36 (KHTML, like Gecko) Chrome/132.0.0.0 Safari/537.36","WebKit","Chrome","132.0.0.0","Windows","10.0","https://app.prolific.com/","en-US,en;q=0.9","6629517257384969d8995d78","67949641171f97c04e14fb34","679ab3a0eaa7dc34aebe73fa","","null","<img    src='G_4.jpg' height='90'> <img    src='G_6.jpg' height='90'> <img    src='G_8.jpg' height='90'> <img id='selected'    src='G_7.jpg' height='90'> <img src='G_5.jpg' height='90'> <img src='G_2.jpg' height='90'> <img src='G_3.jpg' height='90'> <img src='G_1.jpg' height='90'>","null","Animation1",""
"","","","","","html-keyboard-response","92","204522","0.0-72.0","51","1","2025-01-29 23:03:11","af8d355d56820e421d246a7037deb6e6","97.148.119.241","Mozilla/5.0 (Windows NT 10.0; Win64; x64) AppleWebKit/537.36 (KHTML, like Gecko) Chrome/132.0.0.0 Safari/537.36","WebKit","Chrome","132.0.0.0","Windows","10.0","https://app.prolific.com/","en-US,en;q=0.9","6629517257384969d8995d78","67949641171f97c04e14fb34","679ab3a0eaa7dc34aebe73fa","","null","<img    src='G_4.jpg' height='90'> <img    src='G_6.jpg' height='90'> <img    src='G_8.jpg' height='90'> <img id='selected'    src='G_7.jpg' height='90'> <img id='selected' src='G_5.jpg' height='90'> <img src='G_2.jpg' height='90'> <img src='G_3.jpg' height='90'> <img src='G_1.jpg' height='90'>","null","Animation1",""
"","","","","","html-keyboard-response","93","205038","0.0-73.0","51","1","2025-01-29 23:03:11","af8d355d56820e421d246a7037deb6e6","97.148.119.241","Mozilla/5.0 (Windows NT 10.0; Win64; x64) AppleWebKit/537.36 (KHTML, like Gecko) Chrome/132.0.0.0 Safari/537.36","WebKit","Chrome","132.0.0.0","Windows","10.0","https://app.prolific.com/","en-US,en;q=0.9","6629517257384969d8995d78","67949641171f97c04e14fb34","679ab3a0eaa7dc34aebe73fa","","null","<img    src='G_4.jpg' height='90'> <img    src='G_6.jpg' height='90'> <img    src='G_8.jpg' height='90'> <img id='swapped' src='G_5.jpg' height='90'> <img id='swapped'    src='G_7.jpg' height='90'> <img src='G_2.jpg' height='90'> <img src='G_3.jpg' height='90'> <img src='G_1.jpg' height='90'>","null","Animation1",""
"","","","","","html-keyboard-response","94","205351","0.0-74.0","51","1","2025-01-29 23:03:11","af8d355d56820e421d246a7037deb6e6","97.148.119.241","Mozilla/5.0 (Windows NT 10.0; Win64; x64) AppleWebKit/537.36 (KHTML, like Gecko) Chrome/132.0.0.0 Safari/537.36","WebKit","Chrome","132.0.0.0","Windows","10.0","https://app.prolific.com/","en-US,en;q=0.9","6629517257384969d8995d78","67949641171f97c04e14fb34","679ab3a0eaa7dc34aebe73fa","","null","<img    src='G_4.jpg' height='90'> <img    src='G_6.jpg' height='90'> <img    src='G_8.jpg' height='90'> <img  src='G_5.jpg' height='90'> <img     src='G_7.jpg' height='90'> <img src='G_2.jpg' height='90'> <img src='G_3.jpg' height='90'> <img src='G_1.jpg' height='90'>","null","Animation1",""
"","","","","","html-keyboard-response","95","205871","0.0-75.0","51","1","2025-01-29 23:03:11","af8d355d56820e421d246a7037deb6e6","97.148.119.241","Mozilla/5.0 (Windows NT 10.0; Win64; x64) AppleWebKit/537.36 (KHTML, like Gecko) Chrome/132.0.0.0 Safari/537.36","WebKit","Chrome","132.0.0.0","Windows","10.0","https://app.prolific.com/","en-US,en;q=0.9","6629517257384969d8995d78","67949641171f97c04e14fb34","679ab3a0eaa7dc34aebe73fa","","null","<img    src='G_4.jpg' height='90'> <img    src='G_6.jpg' height='90'> <img id='selected'    src='G_8.jpg' height='90'> <img  src='G_5.jpg' height='90'> <img     src='G_7.jpg' height='90'> <img src='G_2.jpg' height='90'> <img src='G_3.jpg' height='90'> <img src='G_1.jpg' height='90'>","null","Animation1",""
"","","","","","html-keyboard-response","96","206388","0.0-76.0","51","1","2025-01-29 23:03:11","af8d355d56820e421d246a7037deb6e6","97.148.119.241","Mozilla/5.0 (Windows NT 10.0; Win64; x64) AppleWebKit/537.36 (KHTML, like Gecko) Chrome/132.0.0.0 Safari/537.36","WebKit","Chrome","132.0.0.0","Windows","10.0","https://app.prolific.com/","en-US,en;q=0.9","6629517257384969d8995d78","67949641171f97c04e14fb34","679ab3a0eaa7dc34aebe73fa","","null","<img    src='G_4.jpg' height='90'> <img    src='G_6.jpg' height='90'> <img id='selected'    src='G_8.jpg' height='90'> <img id='selected'  src='G_5.jpg' height='90'> <img     src='G_7.jpg' height='90'> <img src='G_2.jpg' height='90'> <img src='G_3.jpg' height='90'> <img src='G_1.jpg' height='90'>","null","Animation1",""
"","","","","","html-keyboard-response","97","206905","0.0-77.0","51","1","2025-01-29 23:03:11","af8d355d56820e421d246a7037deb6e6","97.148.119.241","Mozilla/5.0 (Windows NT 10.0; Win64; x64) AppleWebKit/537.36 (KHTML, like Gecko) Chrome/132.0.0.0 Safari/537.36","WebKit","Chrome","132.0.0.0","Windows","10.0","https://app.prolific.com/","en-US,en;q=0.9","6629517257384969d8995d78","67949641171f97c04e14fb34","679ab3a0eaa7dc34aebe73fa","","null","<img    src='G_4.jpg' height='90'> <img    src='G_6.jpg' height='90'> <img id='swapped'  src='G_5.jpg' height='90'> <img id='swapped'    src='G_8.jpg' height='90'> <img     src='G_7.jpg' height='90'> <img src='G_2.jpg' height='90'> <img src='G_3.jpg' height='90'> <img src='G_1.jpg' height='90'>","null","Animation1",""
"","","","","","html-keyboard-response","98","207219","0.0-78.0","51","1","2025-01-29 23:03:11","af8d355d56820e421d246a7037deb6e6","97.148.119.241","Mozilla/5.0 (Windows NT 10.0; Win64; x64) AppleWebKit/537.36 (KHTML, like Gecko) Chrome/132.0.0.0 Safari/537.36","WebKit","Chrome","132.0.0.0","Windows","10.0","https://app.prolific.com/","en-US,en;q=0.9","6629517257384969d8995d78","67949641171f97c04e14fb34","679ab3a0eaa7dc34aebe73fa","","null","<img    src='G_4.jpg' height='90'> <img    src='G_6.jpg' height='90'> <img   src='G_5.jpg' height='90'> <img     src='G_8.jpg' height='90'> <img     src='G_7.jpg' height='90'> <img src='G_2.jpg' height='90'> <img src='G_3.jpg' height='90'> <img src='G_1.jpg' height='90'>","null","Animation1",""
"","","","","","html-keyboard-response","99","207738","0.0-79.0","51","1","2025-01-29 23:03:11","af8d355d56820e421d246a7037deb6e6","97.148.119.241","Mozilla/5.0 (Windows NT 10.0; Win64; x64) AppleWebKit/537.36 (KHTML, like Gecko) Chrome/132.0.0.0 Safari/537.36","WebKit","Chrome","132.0.0.0","Windows","10.0","https://app.prolific.com/","en-US,en;q=0.9","6629517257384969d8995d78","67949641171f97c04e14fb34","679ab3a0eaa7dc34aebe73fa","","null","<img    src='G_4.jpg' height='90'> <img id='selected'    src='G_6.jpg' height='90'> <img   src='G_5.jpg' height='90'> <img     src='G_8.jpg' height='90'> <img     src='G_7.jpg' height='90'> <img src='G_2.jpg' height='90'> <img src='G_3.jpg' height='90'> <img src='G_1.jpg' height='90'>","null","Animation1",""
"","","","","","html-keyboard-response","100","208255","0.0-80.0","51","1","2025-01-29 23:03:11","af8d355d56820e421d246a7037deb6e6","97.148.119.241","Mozilla/5.0 (Windows NT 10.0; Win64; x64) AppleWebKit/537.36 (KHTML, like Gecko) Chrome/132.0.0.0 Safari/537.36","WebKit","Chrome","132.0.0.0","Windows","10.0","https://app.prolific.com/","en-US,en;q=0.9","6629517257384969d8995d78","67949641171f97c04e14fb34","679ab3a0eaa7dc34aebe73fa","","null","<img    src='G_4.jpg' height='90'> <img id='selected'    src='G_6.jpg' height='90'> <img id='selected'   src='G_5.jpg' height='90'> <img     src='G_8.jpg' height='90'> <img     src='G_7.jpg' height='90'> <img src='G_2.jpg' height='90'> <img src='G_3.jpg' height='90'> <img src='G_1.jpg' height='90'>","null","Animation1",""
"","","","","","html-keyboard-response","101","208771","0.0-81.0","51","1","2025-01-29 23:03:11","af8d355d56820e421d246a7037deb6e6","97.148.119.241","Mozilla/5.0 (Windows NT 10.0; Win64; x64) AppleWebKit/537.36 (KHTML, like Gecko) Chrome/132.0.0.0 Safari/537.36","WebKit","Chrome","132.0.0.0","Windows","10.0","https://app.prolific.com/","en-US,en;q=0.9","6629517257384969d8995d78","67949641171f97c04e14fb34","679ab3a0eaa7dc34aebe73fa","","null","<img    src='G_4.jpg' height='90'> <img id='swapped'   src='G_5.jpg' height='90'> <img id='swapped'    src='G_6.jpg' height='90'> <img     src='G_8.jpg' height='90'> <img     src='G_7.jpg' height='90'> <img src='G_2.jpg' height='90'> <img src='G_3.jpg' height='90'> <img src='G_1.jpg' height='90'>","null","Animation1",""
"","","","","","html-keyboard-response","102","209086","0.0-82.0","51","1","2025-01-29 23:03:11","af8d355d56820e421d246a7037deb6e6","97.148.119.241","Mozilla/5.0 (Windows NT 10.0; Win64; x64) AppleWebKit/537.36 (KHTML, like Gecko) Chrome/132.0.0.0 Safari/537.36","WebKit","Chrome","132.0.0.0","Windows","10.0","https://app.prolific.com/","en-US,en;q=0.9","6629517257384969d8995d78","67949641171f97c04e14fb34","679ab3a0eaa7dc34aebe73fa","","null","<img    src='G_4.jpg' height='90'> <img    src='G_5.jpg' height='90'> <img     src='G_6.jpg' height='90'> <img     src='G_8.jpg' height='90'> <img     src='G_7.jpg' height='90'> <img src='G_2.jpg' height='90'> <img src='G_3.jpg' height='90'> <img src='G_1.jpg' height='90'>","null","Animation1",""
"","","","","","html-keyboard-response","103","209605","0.0-83.0","51","1","2025-01-29 23:03:11","af8d355d56820e421d246a7037deb6e6","97.148.119.241","Mozilla/5.0 (Windows NT 10.0; Win64; x64) AppleWebKit/537.36 (KHTML, like Gecko) Chrome/132.0.0.0 Safari/537.36","WebKit","Chrome","132.0.0.0","Windows","10.0","https://app.prolific.com/","en-US,en;q=0.9","6629517257384969d8995d78","67949641171f97c04e14fb34","679ab3a0eaa7dc34aebe73fa","","null","<img id='selected'    src='G_4.jpg' height='90'> <img    src='G_5.jpg' height='90'> <img     src='G_6.jpg' height='90'> <img     src='G_8.jpg' height='90'> <img     src='G_7.jpg' height='90'> <img src='G_2.jpg' height='90'> <img src='G_3.jpg' height='90'> <img src='G_1.jpg' height='90'>","null","Animation1",""
"","","","","","html-keyboard-response","104","210122","0.0-84.0","51","1","2025-01-29 23:03:11","af8d355d56820e421d246a7037deb6e6","97.148.119.241","Mozilla/5.0 (Windows NT 10.0; Win64; x64) AppleWebKit/537.36 (KHTML, like Gecko) Chrome/132.0.0.0 Safari/537.36","WebKit","Chrome","132.0.0.0","Windows","10.0","https://app.prolific.com/","en-US,en;q=0.9","6629517257384969d8995d78","67949641171f97c04e14fb34","679ab3a0eaa7dc34aebe73fa","","null","<img id='selected'    src='G_4.jpg' height='90'> <img id='selected'    src='G_5.jpg' height='90'> <img     src='G_6.jpg' height='90'> <img     src='G_8.jpg' height='90'> <img     src='G_7.jpg' height='90'> <img src='G_2.jpg' height='90'> <img src='G_3.jpg' height='90'> <img src='G_1.jpg' height='90'>","null","Animation1",""
"","","","","","html-keyboard-response","105","210638","0.0-85.0","51","1","2025-01-29 23:03:11","af8d355d56820e421d246a7037deb6e6","97.148.119.241","Mozilla/5.0 (Windows NT 10.0; Win64; x64) AppleWebKit/537.36 (KHTML, like Gecko) Chrome/132.0.0.0 Safari/537.36","WebKit","Chrome","132.0.0.0","Windows","10.0","https://app.prolific.com/","en-US,en;q=0.9","6629517257384969d8995d78","67949641171f97c04e14fb34","679ab3a0eaa7dc34aebe73fa","","null","<img id='selected'    src='G_4.jpg' height='90'> <img id='selected'    src='G_5.jpg' height='90'> <img     src='G_6.jpg' height='90'> <img     src='G_8.jpg' height='90'> <img     src='G_7.jpg' height='90'> <img src='G_2.jpg' height='90'> <img src='G_3.jpg' height='90'> <img src='G_1.jpg' height='90'>","null","Animation1",""
"","","","","","html-keyboard-response","106","210952","0.0-86.0","51","1","2025-01-29 23:03:11","af8d355d56820e421d246a7037deb6e6","97.148.119.241","Mozilla/5.0 (Windows NT 10.0; Win64; x64) AppleWebKit/537.36 (KHTML, like Gecko) Chrome/132.0.0.0 Safari/537.36","WebKit","Chrome","132.0.0.0","Windows","10.0","https://app.prolific.com/","en-US,en;q=0.9","6629517257384969d8995d78","67949641171f97c04e14fb34","679ab3a0eaa7dc34aebe73fa","","null","<img     src='G_4.jpg' height='90'> <img     src='G_5.jpg' height='90'> <img     src='G_6.jpg' height='90'> <img     src='G_8.jpg' height='90'> <img     src='G_7.jpg' height='90'> <img src='G_2.jpg' height='90'> <img src='G_3.jpg' height='90'> <img src='G_1.jpg' height='90'>","null","Animation1",""
"","","","","","html-keyboard-response","107","211456","0.0-87.0","51","1","2025-01-29 23:03:11","af8d355d56820e421d246a7037deb6e6","97.148.119.241","Mozilla/5.0 (Windows NT 10.0; Win64; x64) AppleWebKit/537.36 (KHTML, like Gecko) Chrome/132.0.0.0 Safari/537.36","WebKit","Chrome","132.0.0.0","Windows","10.0","https://app.prolific.com/","en-US,en;q=0.9","6629517257384969d8995d78","67949641171f97c04e14fb34","679ab3a0eaa7dc34aebe73fa","","null","<img     src='G_4.jpg' height='90'> <img     src='G_5.jpg' height='90'> <img     src='G_6.jpg' height='90'> <img     src='G_8.jpg' height='90'> <img id='selected'     src='G_7.jpg' height='90'> <img src='G_2.jpg' height='90'> <img src='G_3.jpg' height='90'> <img src='G_1.jpg' height='90'>","null","Animation1",""
"","","","","","html-keyboard-response","108","211967","0.0-88.0","51","1","2025-01-29 23:03:11","af8d355d56820e421d246a7037deb6e6","97.148.119.241","Mozilla/5.0 (Windows NT 10.0; Win64; x64) AppleWebKit/537.36 (KHTML, like Gecko) Chrome/132.0.0.0 Safari/537.36","WebKit","Chrome","132.0.0.0","Windows","10.0","https://app.prolific.com/","en-US,en;q=0.9","6629517257384969d8995d78","67949641171f97c04e14fb34","679ab3a0eaa7dc34aebe73fa","","null","<img     src='G_4.jpg' height='90'> <img     src='G_5.jpg' height='90'> <img     src='G_6.jpg' height='90'> <img     src='G_8.jpg' height='90'> <img id='selected'     src='G_7.jpg' height='90'> <img id='selected' src='G_2.jpg' height='90'> <img src='G_3.jpg' height='90'> <img src='G_1.jpg' height='90'>","null","Animation1",""
"","","","","","html-keyboard-response","109","212474","0.0-89.0","51","1","2025-01-29 23:03:11","af8d355d56820e421d246a7037deb6e6","97.148.119.241","Mozilla/5.0 (Windows NT 10.0; Win64; x64) AppleWebKit/537.36 (KHTML, like Gecko) Chrome/132.0.0.0 Safari/537.36","WebKit","Chrome","132.0.0.0","Windows","10.0","https://app.prolific.com/","en-US,en;q=0.9","6629517257384969d8995d78","67949641171f97c04e14fb34","679ab3a0eaa7dc34aebe73fa","","null","<img     src='G_4.jpg' height='90'> <img     src='G_5.jpg' height='90'> <img     src='G_6.jpg' height='90'> <img     src='G_8.jpg' height='90'> <img id='swapped' src='G_2.jpg' height='90'> <img id='swapped'     src='G_7.jpg' height='90'> <img src='G_3.jpg' height='90'> <img src='G_1.jpg' height='90'>","null","Animation1",""
"","","","","","html-keyboard-response","110","212785","0.0-90.0","51","1","2025-01-29 23:03:11","af8d355d56820e421d246a7037deb6e6","97.148.119.241","Mozilla/5.0 (Windows NT 10.0; Win64; x64) AppleWebKit/537.36 (KHTML, like Gecko) Chrome/132.0.0.0 Safari/537.36","WebKit","Chrome","132.0.0.0","Windows","10.0","https://app.prolific.com/","en-US,en;q=0.9","6629517257384969d8995d78","67949641171f97c04e14fb34","679ab3a0eaa7dc34aebe73fa","","null","<img     src='G_4.jpg' height='90'> <img     src='G_5.jpg' height='90'> <img     src='G_6.jpg' height='90'> <img     src='G_8.jpg' height='90'> <img  src='G_2.jpg' height='90'> <img      src='G_7.jpg' height='90'> <img src='G_3.jpg' height='90'> <img src='G_1.jpg' height='90'>","null","Animation1",""
"","","","","","html-keyboard-response","111","213289","0.0-91.0","51","1","2025-01-29 23:03:11","af8d355d56820e421d246a7037deb6e6","97.148.119.241","Mozilla/5.0 (Windows NT 10.0; Win64; x64) AppleWebKit/537.36 (KHTML, like Gecko) Chrome/132.0.0.0 Safari/537.36","WebKit","Chrome","132.0.0.0","Windows","10.0","https://app.prolific.com/","en-US,en;q=0.9","6629517257384969d8995d78","67949641171f97c04e14fb34","679ab3a0eaa7dc34aebe73fa","","null","<img     src='G_4.jpg' height='90'> <img     src='G_5.jpg' height='90'> <img     src='G_6.jpg' height='90'> <img id='selected'     src='G_8.jpg' height='90'> <img  src='G_2.jpg' height='90'> <img      src='G_7.jpg' height='90'> <img src='G_3.jpg' height='90'> <img src='G_1.jpg' height='90'>","null","Animation1",""
"","","","","","html-keyboard-response","112","213805","0.0-92.0","51","1","2025-01-29 23:03:11","af8d355d56820e421d246a7037deb6e6","97.148.119.241","Mozilla/5.0 (Windows NT 10.0; Win64; x64) AppleWebKit/537.36 (KHTML, like Gecko) Chrome/132.0.0.0 Safari/537.36","WebKit","Chrome","132.0.0.0","Windows","10.0","https://app.prolific.com/","en-US,en;q=0.9","6629517257384969d8995d78","67949641171f97c04e14fb34","679ab3a0eaa7dc34aebe73fa","","null","<img     src='G_4.jpg' height='90'> <img     src='G_5.jpg' height='90'> <img     src='G_6.jpg' height='90'> <img id='selected'     src='G_8.jpg' height='90'> <img id='selected'  src='G_2.jpg' height='90'> <img      src='G_7.jpg' height='90'> <img src='G_3.jpg' height='90'> <img src='G_1.jpg' height='90'>","null","Animation1",""
"","","","","","html-keyboard-response","113","214322","0.0-93.0","51","1","2025-01-29 23:03:11","af8d355d56820e421d246a7037deb6e6","97.148.119.241","Mozilla/5.0 (Windows NT 10.0; Win64; x64) AppleWebKit/537.36 (KHTML, like Gecko) Chrome/132.0.0.0 Safari/537.36","WebKit","Chrome","132.0.0.0","Windows","10.0","https://app.prolific.com/","en-US,en;q=0.9","6629517257384969d8995d78","67949641171f97c04e14fb34","679ab3a0eaa7dc34aebe73fa","","null","<img     src='G_4.jpg' height='90'> <img     src='G_5.jpg' height='90'> <img     src='G_6.jpg' height='90'> <img id='selected'     src='G_8.jpg' height='90'> <img id='selected'  src='G_2.jpg' height='90'> <img      src='G_7.jpg' height='90'> <img src='G_3.jpg' height='90'> <img src='G_1.jpg' height='90'>","null","Animation1",""
"","","","","","html-keyboard-response","114","214635","0.0-94.0","51","1","2025-01-29 23:03:11","af8d355d56820e421d246a7037deb6e6","97.148.119.241","Mozilla/5.0 (Windows NT 10.0; Win64; x64) AppleWebKit/537.36 (KHTML, like Gecko) Chrome/132.0.0.0 Safari/537.36","WebKit","Chrome","132.0.0.0","Windows","10.0","https://app.prolific.com/","en-US,en;q=0.9","6629517257384969d8995d78","67949641171f97c04e14fb34","679ab3a0eaa7dc34aebe73fa","","null","<img     src='G_4.jpg' height='90'> <img     src='G_5.jpg' height='90'> <img     src='G_6.jpg' height='90'> <img      src='G_8.jpg' height='90'> <img   src='G_2.jpg' height='90'> <img      src='G_7.jpg' height='90'> <img src='G_3.jpg' height='90'> <img src='G_1.jpg' height='90'>","null","Animation1",""
"","","","","","html-keyboard-response","115","215155","0.0-95.0","51","1","2025-01-29 23:03:11","af8d355d56820e421d246a7037deb6e6","97.148.119.241","Mozilla/5.0 (Windows NT 10.0; Win64; x64) AppleWebKit/537.36 (KHTML, like Gecko) Chrome/132.0.0.0 Safari/537.36","WebKit","Chrome","132.0.0.0","Windows","10.0","https://app.prolific.com/","en-US,en;q=0.9","6629517257384969d8995d78","67949641171f97c04e14fb34","679ab3a0eaa7dc34aebe73fa","","null","<img     src='G_4.jpg' height='90'> <img     src='G_5.jpg' height='90'> <img     src='G_6.jpg' height='90'> <img      src='G_8.jpg' height='90'> <img   src='G_2.jpg' height='90'> <img id='selected'      src='G_7.jpg' height='90'> <img src='G_3.jpg' height='90'> <img src='G_1.jpg' height='90'>","null","Animation1",""
"","","","","","html-keyboard-response","116","215672","0.0-96.0","51","1","2025-01-29 23:03:11","af8d355d56820e421d246a7037deb6e6","97.148.119.241","Mozilla/5.0 (Windows NT 10.0; Win64; x64) AppleWebKit/537.36 (KHTML, like Gecko) Chrome/132.0.0.0 Safari/537.36","WebKit","Chrome","132.0.0.0","Windows","10.0","https://app.prolific.com/","en-US,en;q=0.9","6629517257384969d8995d78","67949641171f97c04e14fb34","679ab3a0eaa7dc34aebe73fa","","null","<img     src='G_4.jpg' height='90'> <img     src='G_5.jpg' height='90'> <img     src='G_6.jpg' height='90'> <img      src='G_8.jpg' height='90'> <img   src='G_2.jpg' height='90'> <img id='selected'      src='G_7.jpg' height='90'> <img id='selected' src='G_3.jpg' height='90'> <img src='G_1.jpg' height='90'>","null","Animation1",""
"","","","","","html-keyboard-response","117","216188","0.0-97.0","51","1","2025-01-29 23:03:11","af8d355d56820e421d246a7037deb6e6","97.148.119.241","Mozilla/5.0 (Windows NT 10.0; Win64; x64) AppleWebKit/537.36 (KHTML, like Gecko) Chrome/132.0.0.0 Safari/537.36","WebKit","Chrome","132.0.0.0","Windows","10.0","https://app.prolific.com/","en-US,en;q=0.9","6629517257384969d8995d78","67949641171f97c04e14fb34","679ab3a0eaa7dc34aebe73fa","","null","<img     src='G_4.jpg' height='90'> <img     src='G_5.jpg' height='90'> <img     src='G_6.jpg' height='90'> <img      src='G_8.jpg' height='90'> <img   src='G_2.jpg' height='90'> <img id='selected'      src='G_7.jpg' height='90'> <img id='selected' src='G_3.jpg' height='90'> <img src='G_1.jpg' height='90'>","null","Animation1",""
"","","","","","html-keyboard-response","118","216503","0.0-98.0","51","1","2025-01-29 23:03:11","af8d355d56820e421d246a7037deb6e6","97.148.119.241","Mozilla/5.0 (Windows NT 10.0; Win64; x64) AppleWebKit/537.36 (KHTML, like Gecko) Chrome/132.0.0.0 Safari/537.36","WebKit","Chrome","132.0.0.0","Windows","10.0","https://app.prolific.com/","en-US,en;q=0.9","6629517257384969d8995d78","67949641171f97c04e14fb34","679ab3a0eaa7dc34aebe73fa","","null","<img     src='G_4.jpg' height='90'> <img     src='G_5.jpg' height='90'> <img     src='G_6.jpg' height='90'> <img      src='G_8.jpg' height='90'> <img   src='G_2.jpg' height='90'> <img       src='G_7.jpg' height='90'> <img  src='G_3.jpg' height='90'> <img src='G_1.jpg' height='90'>","null","Animation1",""
"","","","","","html-keyboard-response","119","217022","0.0-99.0","51","1","2025-01-29 23:03:11","af8d355d56820e421d246a7037deb6e6","97.148.119.241","Mozilla/5.0 (Windows NT 10.0; Win64; x64) AppleWebKit/537.36 (KHTML, like Gecko) Chrome/132.0.0.0 Safari/537.36","WebKit","Chrome","132.0.0.0","Windows","10.0","https://app.prolific.com/","en-US,en;q=0.9","6629517257384969d8995d78","67949641171f97c04e14fb34","679ab3a0eaa7dc34aebe73fa","","null","<img     src='G_4.jpg' height='90'> <img     src='G_5.jpg' height='90'> <img     src='G_6.jpg' height='90'> <img      src='G_8.jpg' height='90'> <img   src='G_2.jpg' height='90'> <img       src='G_7.jpg' height='90'> <img id='selected'  src='G_3.jpg' height='90'> <img src='G_1.jpg' height='90'>","null","Animation1",""
"","","","","","html-keyboard-response","120","217538","0.0-100.0","51","1","2025-01-29 23:03:11","af8d355d56820e421d246a7037deb6e6","97.148.119.241","Mozilla/5.0 (Windows NT 10.0; Win64; x64) AppleWebKit/537.36 (KHTML, like Gecko) Chrome/132.0.0.0 Safari/537.36","WebKit","Chrome","132.0.0.0","Windows","10.0","https://app.prolific.com/","en-US,en;q=0.9","6629517257384969d8995d78","67949641171f97c04e14fb34","679ab3a0eaa7dc34aebe73fa","","null","<img     src='G_4.jpg' height='90'> <img     src='G_5.jpg' height='90'> <img     src='G_6.jpg' height='90'> <img      src='G_8.jpg' height='90'> <img   src='G_2.jpg' height='90'> <img       src='G_7.jpg' height='90'> <img id='selected'  src='G_3.jpg' height='90'> <img id='selected' src='G_1.jpg' height='90'>","null","Animation1",""
"","","","","","html-keyboard-response","121","218056","0.0-101.0","51","1","2025-01-29 23:03:11","af8d355d56820e421d246a7037deb6e6","97.148.119.241","Mozilla/5.0 (Windows NT 10.0; Win64; x64) AppleWebKit/537.36 (KHTML, like Gecko) Chrome/132.0.0.0 Safari/537.36","WebKit","Chrome","132.0.0.0","Windows","10.0","https://app.prolific.com/","en-US,en;q=0.9","6629517257384969d8995d78","67949641171f97c04e14fb34","679ab3a0eaa7dc34aebe73fa","","null","<img     src='G_4.jpg' height='90'> <img     src='G_5.jpg' height='90'> <img     src='G_6.jpg' height='90'> <img      src='G_8.jpg' height='90'> <img   src='G_2.jpg' height='90'> <img       src='G_7.jpg' height='90'> <img id='swapped' src='G_1.jpg' height='90'> <img id='swapped'  src='G_3.jpg' height='90'>","null","Animation1",""
"","","","","","html-keyboard-response","122","218369","0.0-102.0","51","1","2025-01-29 23:03:11","af8d355d56820e421d246a7037deb6e6","97.148.119.241","Mozilla/5.0 (Windows NT 10.0; Win64; x64) AppleWebKit/537.36 (KHTML, like Gecko) Chrome/132.0.0.0 Safari/537.36","WebKit","Chrome","132.0.0.0","Windows","10.0","https://app.prolific.com/","en-US,en;q=0.9","6629517257384969d8995d78","67949641171f97c04e14fb34","679ab3a0eaa7dc34aebe73fa","","null","<img     src='G_4.jpg' height='90'> <img     src='G_5.jpg' height='90'> <img     src='G_6.jpg' height='90'> <img      src='G_8.jpg' height='90'> <img   src='G_2.jpg' height='90'> <img       src='G_7.jpg' height='90'> <img  src='G_1.jpg' height='90'> <img   src='G_3.jpg' height='90'>","null","Animation1",""
"","","","","","html-keyboard-response","123","218889","0.0-103.0","51","1","2025-01-29 23:03:11","af8d355d56820e421d246a7037deb6e6","97.148.119.241","Mozilla/5.0 (Windows NT 10.0; Win64; x64) AppleWebKit/537.36 (KHTML, like Gecko) Chrome/132.0.0.0 Safari/537.36","WebKit","Chrome","132.0.0.0","Windows","10.0","https://app.prolific.com/","en-US,en;q=0.9","6629517257384969d8995d78","67949641171f97c04e14fb34","679ab3a0eaa7dc34aebe73fa","","null","<img     src='G_4.jpg' height='90'> <img     src='G_5.jpg' height='90'> <img     src='G_6.jpg' height='90'> <img      src='G_8.jpg' height='90'> <img   src='G_2.jpg' height='90'> <img id='selected'       src='G_7.jpg' height='90'> <img  src='G_1.jpg' height='90'> <img   src='G_3.jpg' height='90'>","null","Animation1",""
"","","","","","html-keyboard-response","124","219405","0.0-104.0","51","1","2025-01-29 23:03:11","af8d355d56820e421d246a7037deb6e6","97.148.119.241","Mozilla/5.0 (Windows NT 10.0; Win64; x64) AppleWebKit/537.36 (KHTML, like Gecko) Chrome/132.0.0.0 Safari/537.36","WebKit","Chrome","132.0.0.0","Windows","10.0","https://app.prolific.com/","en-US,en;q=0.9","6629517257384969d8995d78","67949641171f97c04e14fb34","679ab3a0eaa7dc34aebe73fa","","null","<img     src='G_4.jpg' height='90'> <img     src='G_5.jpg' height='90'> <img     src='G_6.jpg' height='90'> <img      src='G_8.jpg' height='90'> <img   src='G_2.jpg' height='90'> <img id='selected'       src='G_7.jpg' height='90'> <img id='selected'  src='G_1.jpg' height='90'> <img   src='G_3.jpg' height='90'>","null","Animation1",""
"","","","","","html-keyboard-response","125","219922","0.0-105.0","51","1","2025-01-29 23:03:11","af8d355d56820e421d246a7037deb6e6","97.148.119.241","Mozilla/5.0 (Windows NT 10.0; Win64; x64) AppleWebKit/537.36 (KHTML, like Gecko) Chrome/132.0.0.0 Safari/537.36","WebKit","Chrome","132.0.0.0","Windows","10.0","https://app.prolific.com/","en-US,en;q=0.9","6629517257384969d8995d78","67949641171f97c04e14fb34","679ab3a0eaa7dc34aebe73fa","","null","<img     src='G_4.jpg' height='90'> <img     src='G_5.jpg' height='90'> <img     src='G_6.jpg' height='90'> <img      src='G_8.jpg' height='90'> <img   src='G_2.jpg' height='90'> <img id='selected'       src='G_7.jpg' height='90'> <img id='selected'  src='G_1.jpg' height='90'> <img   src='G_3.jpg' height='90'>","null","Animation1",""
"","","","","","html-keyboard-response","126","220236","0.0-106.0","51","1","2025-01-29 23:03:11","af8d355d56820e421d246a7037deb6e6","97.148.119.241","Mozilla/5.0 (Windows NT 10.0; Win64; x64) AppleWebKit/537.36 (KHTML, like Gecko) Chrome/132.0.0.0 Safari/537.36","WebKit","Chrome","132.0.0.0","Windows","10.0","https://app.prolific.com/","en-US,en;q=0.9","6629517257384969d8995d78","67949641171f97c04e14fb34","679ab3a0eaa7dc34aebe73fa","","null","<img     src='G_4.jpg' height='90'> <img     src='G_5.jpg' height='90'> <img     src='G_6.jpg' height='90'> <img      src='G_8.jpg' height='90'> <img   src='G_2.jpg' height='90'> <img        src='G_7.jpg' height='90'> <img   src='G_1.jpg' height='90'> <img   src='G_3.jpg' height='90'>","null","Animation1",""
"","","","","","html-keyboard-response","127","222267","0.0-107.0","51","1","2025-01-29 23:03:11","af8d355d56820e421d246a7037deb6e6","97.148.119.241","Mozilla/5.0 (Windows NT 10.0; Win64; x64) AppleWebKit/537.36 (KHTML, like Gecko) Chrome/132.0.0.0 Safari/537.36","WebKit","Chrome","132.0.0.0","Windows","10.0","https://app.prolific.com/","en-US,en;q=0.9","6629517257384969d8995d78","67949641171f97c04e14fb34","679ab3a0eaa7dc34aebe73fa","","2029","[""Did you notice any patterns? <br><br>Press Enter to watch that example again and follow the steps of Omgne Sort.""]","enter","",""
"","","","","","html-button-response","128","222681","0.0-108.0","51","1","2025-01-29 23:03:11","af8d355d56820e421d246a7037deb6e6","97.148.119.241","Mozilla/5.0 (Windows NT 10.0; Win64; x64) AppleWebKit/537.36 (KHTML, like Gecko) Chrome/132.0.0.0 Safari/537.36","WebKit","Chrome","132.0.0.0","Windows","10.0","https://app.prolific.com/","en-US,en;q=0.9","6629517257384969d8995d78","67949641171f97c04e14fb34","679ab3a0eaa7dc34aebe73fa","","null","<img id='selected' src='G_8.jpg' height='90'> <img src='G_7.jpg' height='90'> <img src='G_6.jpg' height='90'> <img src='G_4.jpg' height='90'> <img src='G_5.jpg' height='90'> <img src='G_2.jpg' height='90'> <img src='G_3.jpg' height='90'> <img src='G_1.jpg' height='90'>","null","Learning example 1",""
"","","","","","html-button-response","129","223002","0.0-109.0","51","1","2025-01-29 23:03:11","af8d355d56820e421d246a7037deb6e6","97.148.119.241","Mozilla/5.0 (Windows NT 10.0; Win64; x64) AppleWebKit/537.36 (KHTML, like Gecko) Chrome/132.0.0.0 Safari/537.36","WebKit","Chrome","132.0.0.0","Windows","10.0","https://app.prolific.com/","en-US,en;q=0.9","6629517257384969d8995d78","67949641171f97c04e14fb34","679ab3a0eaa7dc34aebe73fa","","null","<img id='selected' src='G_8.jpg' height='90'> <img id='selected' src='G_7.jpg' height='90'> <img src='G_6.jpg' height='90'> <img src='G_4.jpg' height='90'> <img src='G_5.jpg' height='90'> <img src='G_2.jpg' height='90'> <img src='G_3.jpg' height='90'> <img src='G_1.jpg' height='90'>","null","Learning example 1",""
"","","","","","html-button-response","130","223318","0.0-110.0","51","1","2025-01-29 23:03:11","af8d355d56820e421d246a7037deb6e6","97.148.119.241","Mozilla/5.0 (Windows NT 10.0; Win64; x64) AppleWebKit/537.36 (KHTML, like Gecko) Chrome/132.0.0.0 Safari/537.36","WebKit","Chrome","132.0.0.0","Windows","10.0","https://app.prolific.com/","en-US,en;q=0.9","6629517257384969d8995d78","67949641171f97c04e14fb34","679ab3a0eaa7dc34aebe73fa","","null","<img id='selected' src='G_8.jpg' height='90'> <img id='selected' src='G_7.jpg' height='90'> <img src='G_6.jpg' height='90'> <img src='G_4.jpg' height='90'> <img src='G_5.jpg' height='90'> <img src='G_2.jpg' height='90'> <img src='G_3.jpg' height='90'> <img src='G_1.jpg' height='90'>","null","Learning example 1",""
"","","","","","html-button-response","131","224793","0.0-111.0-0.0-0.0","51","1","2025-01-29 23:03:11","af8d355d56820e421d246a7037deb6e6","97.148.119.241","Mozilla/5.0 (Windows NT 10.0; Win64; x64) AppleWebKit/537.36 (KHTML, like Gecko) Chrome/132.0.0.0 Safari/537.36","WebKit","Chrome","132.0.0.0","Windows","10.0","https://app.prolific.com/","en-US,en;q=0.9","6629517257384969d8995d78","67949641171f97c04e14fb34","679ab3a0eaa7dc34aebe73fa","","1471","<img id='selected' src='G_8.jpg' height='90'> <img id='selected' src='G_7.jpg' height='90'> <img src='G_6.jpg' height='90'> <img src='G_4.jpg' height='90'> <img src='G_5.jpg' height='90'> <img src='G_2.jpg' height='90'> <img src='G_3.jpg' height='90'> <img src='G_1.jpg' height='90'>","0","Learning example 1",""
"","","","","","html-button-response","132","225743","0.0-111.1-0.1-0.1","51","1","2025-01-29 23:03:11","af8d355d56820e421d246a7037deb6e6","97.148.119.241","Mozilla/5.0 (Windows NT 10.0; Win64; x64) AppleWebKit/537.36 (KHTML, like Gecko) Chrome/132.0.0.0 Safari/537.36","WebKit","Chrome","132.0.0.0","Windows","10.0","https://app.prolific.com/","en-US,en;q=0.9","6629517257384969d8995d78","67949641171f97c04e14fb34","679ab3a0eaa7dc34aebe73fa","","947","<img id='selected' src='G_8.jpg' height='90'> <img id='selected' src='G_7.jpg' height='90'> <img src='G_6.jpg' height='90'> <img src='G_4.jpg' height='90'> <img src='G_5.jpg' height='90'> <img src='G_2.jpg' height='90'> <img src='G_3.jpg' height='90'> <img src='G_1.jpg' height='90'>","1","Learning example 1",""
"","","","","","html-button-response","133","225959","0.0-112.0","51","1","2025-01-29 23:03:11","af8d355d56820e421d246a7037deb6e6","97.148.119.241","Mozilla/5.0 (Windows NT 10.0; Win64; x64) AppleWebKit/537.36 (KHTML, like Gecko) Chrome/132.0.0.0 Safari/537.36","WebKit","Chrome","132.0.0.0","Windows","10.0","https://app.prolific.com/","en-US,en;q=0.9","6629517257384969d8995d78","67949641171f97c04e14fb34","679ab3a0eaa7dc34aebe73fa","","null","<img  src='G_8.jpg' height='90'> <img  src='G_7.jpg' height='90'> <img src='G_6.jpg' height='90'> <img src='G_4.jpg' height='90'> <img src='G_5.jpg' height='90'> <img src='G_2.jpg' height='90'> <img src='G_3.jpg' height='90'> <img src='G_1.jpg' height='90'>","null","Learning example 1",""
"","","","","","html-button-response","134","226377","0.0-113.0","51","1","2025-01-29 23:03:11","af8d355d56820e421d246a7037deb6e6","97.148.119.241","Mozilla/5.0 (Windows NT 10.0; Win64; x64) AppleWebKit/537.36 (KHTML, like Gecko) Chrome/132.0.0.0 Safari/537.36","WebKit","Chrome","132.0.0.0","Windows","10.0","https://app.prolific.com/","en-US,en;q=0.9","6629517257384969d8995d78","67949641171f97c04e14fb34","679ab3a0eaa7dc34aebe73fa","","null","<img  src='G_8.jpg' height='90'> <img id='selected'  src='G_7.jpg' height='90'> <img src='G_6.jpg' height='90'> <img src='G_4.jpg' height='90'> <img src='G_5.jpg' height='90'> <img src='G_2.jpg' height='90'> <img src='G_3.jpg' height='90'> <img src='G_1.jpg' height='90'>","null","Learning example 1",""
"","","","","","html-button-response","135","226686","0.0-114.0","51","1","2025-01-29 23:03:11","af8d355d56820e421d246a7037deb6e6","97.148.119.241","Mozilla/5.0 (Windows NT 10.0; Win64; x64) AppleWebKit/537.36 (KHTML, like Gecko) Chrome/132.0.0.0 Safari/537.36","WebKit","Chrome","132.0.0.0","Windows","10.0","https://app.prolific.com/","en-US,en;q=0.9","6629517257384969d8995d78","67949641171f97c04e14fb34","679ab3a0eaa7dc34aebe73fa","","null","<img  src='G_8.jpg' height='90'> <img id='selected'  src='G_7.jpg' height='90'> <img id='selected' src='G_6.jpg' height='90'> <img src='G_4.jpg' height='90'> <img src='G_5.jpg' height='90'> <img src='G_2.jpg' height='90'> <img src='G_3.jpg' height='90'> <img src='G_1.jpg' height='90'>","null","Learning example 1",""
"","","","","","html-button-response","136","227003","0.0-115.0","51","1","2025-01-29 23:03:11","af8d355d56820e421d246a7037deb6e6","97.148.119.241","Mozilla/5.0 (Windows NT 10.0; Win64; x64) AppleWebKit/537.36 (KHTML, like Gecko) Chrome/132.0.0.0 Safari/537.36","WebKit","Chrome","132.0.0.0","Windows","10.0","https://app.prolific.com/","en-US,en;q=0.9","6629517257384969d8995d78","67949641171f97c04e14fb34","679ab3a0eaa7dc34aebe73fa","","null","<img  src='G_8.jpg' height='90'> <img id='swapped' src='G_6.jpg' height='90'> <img id='swapped'  src='G_7.jpg' height='90'> <img src='G_4.jpg' height='90'> <img src='G_5.jpg' height='90'> <img src='G_2.jpg' height='90'> <img src='G_3.jpg' height='90'> <img src='G_1.jpg' height='90'>","null","Learning example 1",""
"","","","","","html-button-response","137","230478","0.0-116.0-0.0-0.0","51","1","2025-01-29 23:03:11","af8d355d56820e421d246a7037deb6e6","97.148.119.241","Mozilla/5.0 (Windows NT 10.0; Win64; x64) AppleWebKit/537.36 (KHTML, like Gecko) Chrome/132.0.0.0 Safari/537.36","WebKit","Chrome","132.0.0.0","Windows","10.0","https://app.prolific.com/","en-US,en;q=0.9","6629517257384969d8995d78","67949641171f97c04e14fb34","679ab3a0eaa7dc34aebe73fa","","3472","<img  src='G_8.jpg' height='90'> <img id='swapped' src='G_6.jpg' height='90'> <img id='swapped'  src='G_7.jpg' height='90'> <img src='G_4.jpg' height='90'> <img src='G_5.jpg' height='90'> <img src='G_2.jpg' height='90'> <img src='G_3.jpg' height='90'> <img src='G_1.jpg' height='90'>","1","Learning example 1",""
"","","","","","html-button-response","138","231331","0.0-116.1-0.1-0.1","51","1","2025-01-29 23:03:11","af8d355d56820e421d246a7037deb6e6","97.148.119.241","Mozilla/5.0 (Windows NT 10.0; Win64; x64) AppleWebKit/537.36 (KHTML, like Gecko) Chrome/132.0.0.0 Safari/537.36","WebKit","Chrome","132.0.0.0","Windows","10.0","https://app.prolific.com/","en-US,en;q=0.9","6629517257384969d8995d78","67949641171f97c04e14fb34","679ab3a0eaa7dc34aebe73fa","","848","<img  src='G_8.jpg' height='90'> <img id='swapped' src='G_6.jpg' height='90'> <img id='swapped'  src='G_7.jpg' height='90'> <img src='G_4.jpg' height='90'> <img src='G_5.jpg' height='90'> <img src='G_2.jpg' height='90'> <img src='G_3.jpg' height='90'> <img src='G_1.jpg' height='90'>","2","Learning example 1",""
"","","","","","html-button-response","139","231558","0.0-117.0","51","1","2025-01-29 23:03:11","af8d355d56820e421d246a7037deb6e6","97.148.119.241","Mozilla/5.0 (Windows NT 10.0; Win64; x64) AppleWebKit/537.36 (KHTML, like Gecko) Chrome/132.0.0.0 Safari/537.36","WebKit","Chrome","132.0.0.0","Windows","10.0","https://app.prolific.com/","en-US,en;q=0.9","6629517257384969d8995d78","67949641171f97c04e14fb34","679ab3a0eaa7dc34aebe73fa","","null","<img  src='G_8.jpg' height='90'> <img  src='G_6.jpg' height='90'> <img   src='G_7.jpg' height='90'> <img src='G_4.jpg' height='90'> <img src='G_5.jpg' height='90'> <img src='G_2.jpg' height='90'> <img src='G_3.jpg' height='90'> <img src='G_1.jpg' height='90'>","null","Learning example 1",""
"","","","","","html-button-response","140","231977","0.0-118.0","51","1","2025-01-29 23:03:11","af8d355d56820e421d246a7037deb6e6","97.148.119.241","Mozilla/5.0 (Windows NT 10.0; Win64; x64) AppleWebKit/537.36 (KHTML, like Gecko) Chrome/132.0.0.0 Safari/537.36","WebKit","Chrome","132.0.0.0","Windows","10.0","https://app.prolific.com/","en-US,en;q=0.9","6629517257384969d8995d78","67949641171f97c04e14fb34","679ab3a0eaa7dc34aebe73fa","","null","<img id='selected'  src='G_8.jpg' height='90'> <img  src='G_6.jpg' height='90'> <img   src='G_7.jpg' height='90'> <img src='G_4.jpg' height='90'> <img src='G_5.jpg' height='90'> <img src='G_2.jpg' height='90'> <img src='G_3.jpg' height='90'> <img src='G_1.jpg' height='90'>","null","Learning example 1",""
"","","","","","html-button-response","141","232284","0.0-119.0","51","1","2025-01-29 23:03:11","af8d355d56820e421d246a7037deb6e6","97.148.119.241","Mozilla/5.0 (Windows NT 10.0; Win64; x64) AppleWebKit/537.36 (KHTML, like Gecko) Chrome/132.0.0.0 Safari/537.36","WebKit","Chrome","132.0.0.0","Windows","10.0","https://app.prolific.com/","en-US,en;q=0.9","6629517257384969d8995d78","67949641171f97c04e14fb34","679ab3a0eaa7dc34aebe73fa","","null","<img id='selected'  src='G_8.jpg' height='90'> <img id='selected'  src='G_6.jpg' height='90'> <img   src='G_7.jpg' height='90'> <img src='G_4.jpg' height='90'> <img src='G_5.jpg' height='90'> <img src='G_2.jpg' height='90'> <img src='G_3.jpg' height='90'> <img src='G_1.jpg' height='90'>","null","Learning example 1",""
"","","","","","html-button-response","142","232604","0.0-120.0","51","1","2025-01-29 23:03:11","af8d355d56820e421d246a7037deb6e6","97.148.119.241","Mozilla/5.0 (Windows NT 10.0; Win64; x64) AppleWebKit/537.36 (KHTML, like Gecko) Chrome/132.0.0.0 Safari/537.36","WebKit","Chrome","132.0.0.0","Windows","10.0","https://app.prolific.com/","en-US,en;q=0.9","6629517257384969d8995d78","67949641171f97c04e14fb34","679ab3a0eaa7dc34aebe73fa","","null","<img id='swapped'  src='G_6.jpg' height='90'> <img id='swapped'  src='G_8.jpg' height='90'> <img   src='G_7.jpg' height='90'> <img src='G_4.jpg' height='90'> <img src='G_5.jpg' height='90'> <img src='G_2.jpg' height='90'> <img src='G_3.jpg' height='90'> <img src='G_1.jpg' height='90'>","null","Learning example 1",""
