"success","timeout","failed_images","failed_audio","failed_video","trial_type","trial_index","time_elapsed","internal_node_id","run_id","condition","recorded_at","source_code_version","ip","user_agent","device","browser","browser_version","platform","platform_version","referer","accept_language","PROLIFIC_PID","STUDY_ID","SESSION_ID","view_history","rt","stimulus","response","phase","question_order"
"true","false","[]","[]","[]","preload","0","107","0.0-0.0","52","1","2025-01-29 23:05:34","af8d355d56820e421d246a7037deb6e6","108.234.90.222","Mozilla/5.0 (Windows NT 10.0; Win64; x64; rv:134.0) Gecko/20100101 Firefox/134.0","","Firefox","134.0","Windows","10.0","https://app.prolific.com/","en-US,en;q=0.5","5a8cba1a8fe2dc00010643f0","67949641171f97c04e14fb34","679ab429ebcf47617fe24215","","","","","",""
"","","","","","instructions","1","8873","0.0-1.0","52","1","2025-01-29 23:05:34","af8d355d56820e421d246a7037deb6e6","108.234.90.222","Mozilla/5.0 (Windows NT 10.0; Win64; x64; rv:134.0) Gecko/20100101 Firefox/134.0","","Firefox","134.0","Windows","10.0","https://app.prolific.com/","en-US,en;q=0.5","5a8cba1a8fe2dc00010643f0","67949641171f97c04e14fb34","679ab429ebcf47617fe24215","[{""page_index"":0,""viewing_time"":8766}]","8766","","","",""
"","","","","","html-keyboard-response","2","9380","0.0-2.0","52","1","2025-01-29 23:05:34","af8d355d56820e421d246a7037deb6e6","108.234.90.222","Mozilla/5.0 (Windows NT 10.0; Win64; x64; rv:134.0) Gecko/20100101 Firefox/134.0","","Firefox","134.0","Windows","10.0","https://app.prolific.com/","en-US,en;q=0.5","5a8cba1a8fe2dc00010643f0","67949641171f97c04e14fb34","679ab429ebcf47617fe24215","","null","<p> + <p/>","null","",""
"","","","","","instructions","3","275337","0.0-3.0","52","1","2025-01-29 23:05:34","af8d355d56820e421d246a7037deb6e6","108.234.90.222","Mozilla/5.0 (Windows NT 10.0; Win64; x64; rv:134.0) Gecko/20100101 Firefox/134.0","","Firefox","134.0","Windows","10.0","https://app.prolific.com/","en-US,en;q=0.5","5a8cba1a8fe2dc00010643f0","67949641171f97c04e14fb34","679ab429ebcf47617fe24215","[{""page_index"":0,""viewing_time"":2757},{""page_index"":1,""viewing_time"":11239},{""page_index"":2,""viewing_time"":5720},{""page_index"":3,""viewing_time"":3672},{""page_index"":4,""viewing_time"":242569}]","265957","","","",""
"","","","","","html-button-response","4","327314","0.0-4.0-0.0-0.0","52","1","2025-01-29 23:05:34","af8d355d56820e421d246a7037deb6e6","108.234.90.222","Mozilla/5.0 (Windows NT 10.0; Win64; x64; rv:134.0) Gecko/20100101 Firefox/134.0","","Firefox","134.0","Windows","10.0","https://app.prolific.com/","en-US,en;q=0.5","5a8cba1a8fe2dc00010643f0","67949641171f97c04e14fb34","679ab429ebcf47617fe24215","","51974","","0","Intro Trial",""
"","","","","","html-button-response","5","327714","0.0-4.1-0.1-0.1","52","1","2025-01-29 23:05:34","af8d355d56820e421d246a7037deb6e6","108.234.90.222","Mozilla/5.0 (Windows NT 10.0; Win64; x64; rv:134.0) Gecko/20100101 Firefox/134.0","","Firefox","134.0","Windows","10.0","https://app.prolific.com/","en-US,en;q=0.5","5a8cba1a8fe2dc00010643f0","67949641171f97c04e14fb34","679ab429ebcf47617fe24215","","398","","1","Intro Trial",""
"","","","","","html-button-response","6","337162","0.0-4.2-0.2-0.2","52","1","2025-01-29 23:05:34","af8d355d56820e421d246a7037deb6e6","108.234.90.222","Mozilla/5.0 (Windows NT 10.0; Win64; x64; rv:134.0) Gecko/20100101 Firefox/134.0","","Firefox","134.0","Windows","10.0","https://app.prolific.com/","en-US,en;q=0.5","5a8cba1a8fe2dc00010643f0","67949641171f97c04e14fb34","679ab429ebcf47617fe24215","","9446","","3","Intro Trial",""
"","","","","","html-button-response","7","337610","0.0-4.3-0.3-0.3","52","1","2025-01-29 23:05:34","af8d355d56820e421d246a7037deb6e6","108.234.90.222","Mozilla/5.0 (Windows NT 10.0; Win64; x64; rv:134.0) Gecko/20100101 Firefox/134.0","","Firefox","134.0","Windows","10.0","https://app.prolific.com/","en-US,en;q=0.5","5a8cba1a8fe2dc00010643f0","67949641171f97c04e14fb34","679ab429ebcf47617fe24215","","448","","2","Intro Trial",""
"","","","","","html-button-response","8","338601","0.0-4.4-0.4-0.4","52","1","2025-01-29 23:05:34","af8d355d56820e421d246a7037deb6e6","108.234.90.222","Mozilla/5.0 (Windows NT 10.0; Win64; x64; rv:134.0) Gecko/20100101 Firefox/134.0","","Firefox","134.0","Windows","10.0","https://app.prolific.com/","en-US,en;q=0.5","5a8cba1a8fe2dc00010643f0","67949641171f97c04e14fb34","679ab429ebcf47617fe24215","","990","","1","Intro Trial",""
"","","","","","html-button-response","9","339017","0.0-4.5-0.5-0.5","52","1","2025-01-29 23:05:34","af8d355d56820e421d246a7037deb6e6","108.234.90.222","Mozilla/5.0 (Windows NT 10.0; Win64; x64; rv:134.0) Gecko/20100101 Firefox/134.0","","Firefox","134.0","Windows","10.0","https://app.prolific.com/","en-US,en;q=0.5","5a8cba1a8fe2dc00010643f0","67949641171f97c04e14fb34","679ab429ebcf47617fe24215","","416","","2","Intro Trial",""
"","","","","","html-button-response","10","340466","0.0-4.6-0.6-0.6","52","1","2025-01-29 23:05:34","af8d355d56820e421d246a7037deb6e6","108.234.90.222","Mozilla/5.0 (Windows NT 10.0; Win64; x64; rv:134.0) Gecko/20100101 Firefox/134.0","","Firefox","134.0","Windows","10.0","https://app.prolific.com/","en-US,en;q=0.5","5a8cba1a8fe2dc00010643f0","67949641171f97c04e14fb34","679ab429ebcf47617fe24215","","1446","","0","Intro Trial",""
"","","","","","html-button-response","11","340841","0.0-4.7-0.7-0.7","52","1","2025-01-29 23:05:34","af8d355d56820e421d246a7037deb6e6","108.234.90.222","Mozilla/5.0 (Windows NT 10.0; Win64; x64; rv:134.0) Gecko/20100101 Firefox/134.0","","Firefox","134.0","Windows","10.0","https://app.prolific.com/","en-US,en;q=0.5","5a8cba1a8fe2dc00010643f0","67949641171f97c04e14fb34","679ab429ebcf47617fe24215","","375","","1","Intro Trial",""
"","","","","","html-button-response","12","341682","0.0-4.8-0.8-0.8","52","1","2025-01-29 23:05:34","af8d355d56820e421d246a7037deb6e6","108.234.90.222","Mozilla/5.0 (Windows NT 10.0; Win64; x64; rv:134.0) Gecko/20100101 Firefox/134.0","","Firefox","134.0","Windows","10.0","https://app.prolific.com/","en-US,en;q=0.5","5a8cba1a8fe2dc00010643f0","67949641171f97c04e14fb34","679ab429ebcf47617fe24215","","839","","0","Intro Trial",""
"","","","","","html-button-response","13","342786","0.0-4.9-0.9-0.9","52","1","2025-01-29 23:05:34","af8d355d56820e421d246a7037deb6e6","108.234.90.222","Mozilla/5.0 (Windows NT 10.0; Win64; x64; rv:134.0) Gecko/20100101 Firefox/134.0","","Firefox","134.0","Windows","10.0","https://app.prolific.com/","en-US,en;q=0.5","5a8cba1a8fe2dc00010643f0","67949641171f97c04e14fb34","679ab429ebcf47617fe24215","","1103","","3","Intro Trial",""
"","","","","","html-button-response","14","343218","0.0-4.10-0.10-0.10","52","1","2025-01-29 23:05:34","af8d355d56820e421d246a7037deb6e6","108.234.90.222","Mozilla/5.0 (Windows NT 10.0; Win64; x64; rv:134.0) Gecko/20100101 Firefox/134.0","","Firefox","134.0","Windows","10.0","https://app.prolific.com/","en-US,en;q=0.5","5a8cba1a8fe2dc00010643f0","67949641171f97c04e14fb34","679ab429ebcf47617fe24215","","430","","4","Intro Trial",""
"","","","","","html-button-response","15","344466","0.0-4.11-0.11-0.11","52","1","2025-01-29 23:05:34","af8d355d56820e421d246a7037deb6e6","108.234.90.222","Mozilla/5.0 (Windows NT 10.0; Win64; x64; rv:134.0) Gecko/20100101 Firefox/134.0","","Firefox","134.0","Windows","10.0","https://app.prolific.com/","en-US,en;q=0.5","5a8cba1a8fe2dc00010643f0","67949641171f97c04e14fb34","679ab429ebcf47617fe24215","","1246","","4","Intro Trial",""
"","","","","","html-button-response","16","344962","0.0-4.12-0.12-0.12","52","1","2025-01-29 23:05:34","af8d355d56820e421d246a7037deb6e6","108.234.90.222","Mozilla/5.0 (Windows NT 10.0; Win64; x64; rv:134.0) Gecko/20100101 Firefox/134.0","","Firefox","134.0","Windows","10.0","https://app.prolific.com/","en-US,en;q=0.5","5a8cba1a8fe2dc00010643f0","67949641171f97c04e14fb34","679ab429ebcf47617fe24215","","495","","2","Intro Trial",""
"","","","","","html-button-response","17","345794","0.0-4.13-0.13-0.13","52","1","2025-01-29 23:05:34","af8d355d56820e421d246a7037deb6e6","108.234.90.222","Mozilla/5.0 (Windows NT 10.0; Win64; x64; rv:134.0) Gecko/20100101 Firefox/134.0","","Firefox","134.0","Windows","10.0","https://app.prolific.com/","en-US,en;q=0.5","5a8cba1a8fe2dc00010643f0","67949641171f97c04e14fb34","679ab429ebcf47617fe24215","","831","","3","Intro Trial",""
"","","","","","html-button-response","18","346266","0.0-4.14-0.14-0.14","52","1","2025-01-29 23:05:34","af8d355d56820e421d246a7037deb6e6","108.234.90.222","Mozilla/5.0 (Windows NT 10.0; Win64; x64; rv:134.0) Gecko/20100101 Firefox/134.0","","Firefox","134.0","Windows","10.0","https://app.prolific.com/","en-US,en;q=0.5","5a8cba1a8fe2dc00010643f0","67949641171f97c04e14fb34","679ab429ebcf47617fe24215","","472","","4","Intro Trial",""
"","","","","","html-button-response","19","347474","0.0-4.15-0.15-0.15","52","1","2025-01-29 23:05:34","af8d355d56820e421d246a7037deb6e6","108.234.90.222","Mozilla/5.0 (Windows NT 10.0; Win64; x64; rv:134.0) Gecko/20100101 Firefox/134.0","","Firefox","134.0","Windows","10.0","https://app.prolific.com/","en-US,en;q=0.5","5a8cba1a8fe2dc00010643f0","67949641171f97c04e14fb34","679ab429ebcf47617fe24215","","1207","","1","Intro Trial",""
"","","","","","html-button-response","20","348489","0.0-4.16-0.16-0.16","52","1","2025-01-29 23:05:34","af8d355d56820e421d246a7037deb6e6","108.234.90.222","Mozilla/5.0 (Windows NT 10.0; Win64; x64; rv:134.0) Gecko/20100101 Firefox/134.0","","Firefox","134.0","Windows","10.0","https://app.prolific.com/","en-US,en;q=0.5","5a8cba1a8fe2dc00010643f0","67949641171f97c04e14fb34","679ab429ebcf47617fe24215","","1014","","4","Intro Trial",""
"","","","","","html-button-response","21","350850","0.0-4.17-0.17-0.17","52","1","2025-01-29 23:05:34","af8d355d56820e421d246a7037deb6e6","108.234.90.222","Mozilla/5.0 (Windows NT 10.0; Win64; x64; rv:134.0) Gecko/20100101 Firefox/134.0","","Firefox","134.0","Windows","10.0","https://app.prolific.com/","en-US,en;q=0.5","5a8cba1a8fe2dc00010643f0","67949641171f97c04e14fb34","679ab429ebcf47617fe24215","","2360","","0","Intro Trial",""
"","","","","","html-button-response","22","351402","0.0-4.18-0.18-0.18","52","1","2025-01-29 23:05:34","af8d355d56820e421d246a7037deb6e6","108.234.90.222","Mozilla/5.0 (Windows NT 10.0; Win64; x64; rv:134.0) Gecko/20100101 Firefox/134.0","","Firefox","134.0","Windows","10.0","https://app.prolific.com/","en-US,en;q=0.5","5a8cba1a8fe2dc00010643f0","67949641171f97c04e14fb34","679ab429ebcf47617fe24215","","551","","1","Intro Trial",""
"","","","","","html-button-response","23","352106","0.0-4.19-0.19-0.19","52","1","2025-01-29 23:05:34","af8d355d56820e421d246a7037deb6e6","108.234.90.222","Mozilla/5.0 (Windows NT 10.0; Win64; x64; rv:134.0) Gecko/20100101 Firefox/134.0","","Firefox","134.0","Windows","10.0","https://app.prolific.com/","en-US,en;q=0.5","5a8cba1a8fe2dc00010643f0","67949641171f97c04e14fb34","679ab429ebcf47617fe24215","","703","","0","Intro Trial",""
"","","","","","html-button-response","24","352691","0.0-4.20-0.20-0.20","52","1","2025-01-29 23:05:34","af8d355d56820e421d246a7037deb6e6","108.234.90.222","Mozilla/5.0 (Windows NT 10.0; Win64; x64; rv:134.0) Gecko/20100101 Firefox/134.0","","Firefox","134.0","Windows","10.0","https://app.prolific.com/","en-US,en;q=0.5","5a8cba1a8fe2dc00010643f0","67949641171f97c04e14fb34","679ab429ebcf47617fe24215","","583","","2","Intro Trial",""
"","","","","","html-button-response","25","353817","0.0-4.21-0.21-0.21","52","1","2025-01-29 23:05:34","af8d355d56820e421d246a7037deb6e6","108.234.90.222","Mozilla/5.0 (Windows NT 10.0; Win64; x64; rv:134.0) Gecko/20100101 Firefox/134.0","","Firefox","134.0","Windows","10.0","https://app.prolific.com/","en-US,en;q=0.5","5a8cba1a8fe2dc00010643f0","67949641171f97c04e14fb34","679ab429ebcf47617fe24215","","1126","","0","Intro Trial",""
"","","","","","html-button-response","26","354434","0.0-4.22-0.22-0.22","52","1","2025-01-29 23:05:34","af8d355d56820e421d246a7037deb6e6","108.234.90.222","Mozilla/5.0 (Windows NT 10.0; Win64; x64; rv:134.0) Gecko/20100101 Firefox/134.0","","Firefox","134.0","Windows","10.0","https://app.prolific.com/","en-US,en;q=0.5","5a8cba1a8fe2dc00010643f0","67949641171f97c04e14fb34","679ab429ebcf47617fe24215","","616","","3","Intro Trial",""
"","","","","","html-button-response","27","355209","0.0-4.23-0.23-0.23","52","1","2025-01-29 23:05:34","af8d355d56820e421d246a7037deb6e6","108.234.90.222","Mozilla/5.0 (Windows NT 10.0; Win64; x64; rv:134.0) Gecko/20100101 Firefox/134.0","","Firefox","134.0","Windows","10.0","https://app.prolific.com/","en-US,en;q=0.5","5a8cba1a8fe2dc00010643f0","67949641171f97c04e14fb34","679ab429ebcf47617fe24215","","773","","0","Intro Trial",""
"","","","","","html-button-response","28","355778","0.0-4.24-0.24-0.24","52","1","2025-01-29 23:05:34","af8d355d56820e421d246a7037deb6e6","108.234.90.222","Mozilla/5.0 (Windows NT 10.0; Win64; x64; rv:134.0) Gecko/20100101 Firefox/134.0","","Firefox","134.0","Windows","10.0","https://app.prolific.com/","en-US,en;q=0.5","5a8cba1a8fe2dc00010643f0","67949641171f97c04e14fb34","679ab429ebcf47617fe24215","","568","","4","Intro Trial",""
"","","","","","html-button-response","29","356473","0.0-4.25-0.25-0.25","52","1","2025-01-29 23:05:34","af8d355d56820e421d246a7037deb6e6","108.234.90.222","Mozilla/5.0 (Windows NT 10.0; Win64; x64; rv:134.0) Gecko/20100101 Firefox/134.0","","Firefox","134.0","Windows","10.0","https://app.prolific.com/","en-US,en;q=0.5","5a8cba1a8fe2dc00010643f0","67949641171f97c04e14fb34","679ab429ebcf47617fe24215","","694","","0","Intro Trial",""
"","","","","","html-button-response","30","356858","0.0-4.26-0.26-0.26","52","1","2025-01-29 23:05:34","af8d355d56820e421d246a7037deb6e6","108.234.90.222","Mozilla/5.0 (Windows NT 10.0; Win64; x64; rv:134.0) Gecko/20100101 Firefox/134.0","","Firefox","134.0","Windows","10.0","https://app.prolific.com/","en-US,en;q=0.5","5a8cba1a8fe2dc00010643f0","67949641171f97c04e14fb34","679ab429ebcf47617fe24215","","384","","1","Intro Trial",""
"","","","","","html-button-response","31","358025","0.0-4.27-0.27-0.27","52","1","2025-01-29 23:05:34","af8d355d56820e421d246a7037deb6e6","108.234.90.222","Mozilla/5.0 (Windows NT 10.0; Win64; x64; rv:134.0) Gecko/20100101 Firefox/134.0","","Firefox","134.0","Windows","10.0","https://app.prolific.com/","en-US,en;q=0.5","5a8cba1a8fe2dc00010643f0","67949641171f97c04e14fb34","679ab429ebcf47617fe24215","","1165","","1","Intro Trial",""
"","","","","","html-button-response","32","358537","0.0-4.28-0.28-0.28","52","1","2025-01-29 23:05:34","af8d355d56820e421d246a7037deb6e6","108.234.90.222","Mozilla/5.0 (Windows NT 10.0; Win64; x64; rv:134.0) Gecko/20100101 Firefox/134.0","","Firefox","134.0","Windows","10.0","https://app.prolific.com/","en-US,en;q=0.5","5a8cba1a8fe2dc00010643f0","67949641171f97c04e14fb34","679ab429ebcf47617fe24215","","513","","2","Intro Trial",""
"","","","","","html-button-response","33","359178","0.0-4.29-0.29-0.29","52","1","2025-01-29 23:05:34","af8d355d56820e421d246a7037deb6e6","108.234.90.222","Mozilla/5.0 (Windows NT 10.0; Win64; x64; rv:134.0) Gecko/20100101 Firefox/134.0","","Firefox","134.0","Windows","10.0","https://app.prolific.com/","en-US,en;q=0.5","5a8cba1a8fe2dc00010643f0","67949641171f97c04e14fb34","679ab429ebcf47617fe24215","","638","","1","Intro Trial",""
"","","","","","html-button-response","34","359690","0.0-4.30-0.30-0.30","52","1","2025-01-29 23:05:34","af8d355d56820e421d246a7037deb6e6","108.234.90.222","Mozilla/5.0 (Windows NT 10.0; Win64; x64; rv:134.0) Gecko/20100101 Firefox/134.0","","Firefox","134.0","Windows","10.0","https://app.prolific.com/","en-US,en;q=0.5","5a8cba1a8fe2dc00010643f0","67949641171f97c04e14fb34","679ab429ebcf47617fe24215","","510","","3","Intro Trial",""
"","","","","","html-button-response","35","360402","0.0-4.31-0.31-0.31","52","1","2025-01-29 23:05:34","af8d355d56820e421d246a7037deb6e6","108.234.90.222","Mozilla/5.0 (Windows NT 10.0; Win64; x64; rv:134.0) Gecko/20100101 Firefox/134.0","","Firefox","134.0","Windows","10.0","https://app.prolific.com/","en-US,en;q=0.5","5a8cba1a8fe2dc00010643f0","67949641171f97c04e14fb34","679ab429ebcf47617fe24215","","711","","1","Intro Trial",""
"","","","","","html-button-response","36","361098","0.0-4.32-0.32-0.32","52","1","2025-01-29 23:05:34","af8d355d56820e421d246a7037deb6e6","108.234.90.222","Mozilla/5.0 (Windows NT 10.0; Win64; x64; rv:134.0) Gecko/20100101 Firefox/134.0","","Firefox","134.0","Windows","10.0","https://app.prolific.com/","en-US,en;q=0.5","5a8cba1a8fe2dc00010643f0","67949641171f97c04e14fb34","679ab429ebcf47617fe24215","","696","","4","Intro Trial",""
"","","","","","html-button-response","37","362395","0.0-4.33-0.33-0.33","52","1","2025-01-29 23:05:34","af8d355d56820e421d246a7037deb6e6","108.234.90.222","Mozilla/5.0 (Windows NT 10.0; Win64; x64; rv:134.0) Gecko/20100101 Firefox/134.0","","Firefox","134.0","Windows","10.0","https://app.prolific.com/","en-US,en;q=0.5","5a8cba1a8fe2dc00010643f0","67949641171f97c04e14fb34","679ab429ebcf47617fe24215","","1295","","2","Intro Trial",""
"","","","","","html-button-response","38","362850","0.0-4.34-0.34-0.34","52","1","2025-01-29 23:05:34","af8d355d56820e421d246a7037deb6e6","108.234.90.222","Mozilla/5.0 (Windows NT 10.0; Win64; x64; rv:134.0) Gecko/20100101 Firefox/134.0","","Firefox","134.0","Windows","10.0","https://app.prolific.com/","en-US,en;q=0.5","5a8cba1a8fe2dc00010643f0","67949641171f97c04e14fb34","679ab429ebcf47617fe24215","","454","","3","Intro Trial",""
"","","","","","html-button-response","39","364458","0.0-4.35-0.35-0.35","52","1","2025-01-29 23:05:34","af8d355d56820e421d246a7037deb6e6","108.234.90.222","Mozilla/5.0 (Windows NT 10.0; Win64; x64; rv:134.0) Gecko/20100101 Firefox/134.0","","Firefox","134.0","Windows","10.0","https://app.prolific.com/","en-US,en;q=0.5","5a8cba1a8fe2dc00010643f0","67949641171f97c04e14fb34","679ab429ebcf47617fe24215","","1608","","2","Intro Trial",""
"","","","","","html-button-response","40","365026","0.0-4.36-0.36-0.36","52","1","2025-01-29 23:05:34","af8d355d56820e421d246a7037deb6e6","108.234.90.222","Mozilla/5.0 (Windows NT 10.0; Win64; x64; rv:134.0) Gecko/20100101 Firefox/134.0","","Firefox","134.0","Windows","10.0","https://app.prolific.com/","en-US,en;q=0.5","5a8cba1a8fe2dc00010643f0","67949641171f97c04e14fb34","679ab429ebcf47617fe24215","","566","","3","Intro Trial",""
"","","","","","html-button-response","41","365554","0.0-4.37-0.37-0.37","52","1","2025-01-29 23:05:34","af8d355d56820e421d246a7037deb6e6","108.234.90.222","Mozilla/5.0 (Windows NT 10.0; Win64; x64; rv:134.0) Gecko/20100101 Firefox/134.0","","Firefox","134.0","Windows","10.0","https://app.prolific.com/","en-US,en;q=0.5","5a8cba1a8fe2dc00010643f0","67949641171f97c04e14fb34","679ab429ebcf47617fe24215","","527","","2","Intro Trial",""
"","","","","","html-button-response","42","366042","0.0-4.38-0.38-0.38","52","1","2025-01-29 23:05:34","af8d355d56820e421d246a7037deb6e6","108.234.90.222","Mozilla/5.0 (Windows NT 10.0; Win64; x64; rv:134.0) Gecko/20100101 Firefox/134.0","","Firefox","134.0","Windows","10.0","https://app.prolific.com/","en-US,en;q=0.5","5a8cba1a8fe2dc00010643f0","67949641171f97c04e14fb34","679ab429ebcf47617fe24215","","486","","4","Intro Trial",""
"","","","","","html-button-response","43","367322","0.0-4.39-0.39-0.39","52","1","2025-01-29 23:05:34","af8d355d56820e421d246a7037deb6e6","108.234.90.222","Mozilla/5.0 (Windows NT 10.0; Win64; x64; rv:134.0) Gecko/20100101 Firefox/134.0","","Firefox","134.0","Windows","10.0","https://app.prolific.com/","en-US,en;q=0.5","5a8cba1a8fe2dc00010643f0","67949641171f97c04e14fb34","679ab429ebcf47617fe24215","","1278","","3","Intro Trial",""
"","","","","","html-button-response","44","369658","0.0-4.40-0.40-0.40","52","1","2025-01-29 23:05:34","af8d355d56820e421d246a7037deb6e6","108.234.90.222","Mozilla/5.0 (Windows NT 10.0; Win64; x64; rv:134.0) Gecko/20100101 Firefox/134.0","","Firefox","134.0","Windows","10.0","https://app.prolific.com/","en-US,en;q=0.5","5a8cba1a8fe2dc00010643f0","67949641171f97c04e14fb34","679ab429ebcf47617fe24215","","2335","","4","Intro Trial",""
"","","","","","html-button-response","45","370418","0.0-4.41-0.41-0.41","52","1","2025-01-29 23:05:34","af8d355d56820e421d246a7037deb6e6","108.234.90.222","Mozilla/5.0 (Windows NT 10.0; Win64; x64; rv:134.0) Gecko/20100101 Firefox/134.0","","Firefox","134.0","Windows","10.0","https://app.prolific.com/","en-US,en;q=0.5","5a8cba1a8fe2dc00010643f0","67949641171f97c04e14fb34","679ab429ebcf47617fe24215","","759","","3","Intro Trial",""
"","","","","","html-button-response","46","371619","0.0-4.42-0.42-0.42","52","1","2025-01-29 23:05:34","af8d355d56820e421d246a7037deb6e6","108.234.90.222","Mozilla/5.0 (Windows NT 10.0; Win64; x64; rv:134.0) Gecko/20100101 Firefox/134.0","","Firefox","134.0","Windows","10.0","https://app.prolific.com/","en-US,en;q=0.5","5a8cba1a8fe2dc00010643f0","67949641171f97c04e14fb34","679ab429ebcf47617fe24215","","1200","","4","Intro Trial",""
"","","","","","html-button-response","47","373074","0.0-4.43-0.43-0.43","52","1","2025-01-29 23:05:34","af8d355d56820e421d246a7037deb6e6","108.234.90.222","Mozilla/5.0 (Windows NT 10.0; Win64; x64; rv:134.0) Gecko/20100101 Firefox/134.0","","Firefox","134.0","Windows","10.0","https://app.prolific.com/","en-US,en;q=0.5","5a8cba1a8fe2dc00010643f0","67949641171f97c04e14fb34","679ab429ebcf47617fe24215","","1453","","5","Intro Trial",""
"","","","","","html-keyboard-response","48","379873","0.0-5.0","52","1","2025-01-29 23:05:34","af8d355d56820e421d246a7037deb6e6","108.234.90.222","Mozilla/5.0 (Windows NT 10.0; Win64; x64; rv:134.0) Gecko/20100101 Firefox/134.0","","Firefox","134.0","Windows","10.0","https://app.prolific.com/","en-US,en;q=0.5","5a8cba1a8fe2dc00010643f0","67949641171f97c04e14fb34","679ab429ebcf47617fe24215","","6799","[""You sorted correctly by using the balance 19 times. <br><br> <img src='G_5.jpg' height='90'><img src='G_2.jpg' height='90'><img src='G_3.jpg' height='90'><img src='G_1.jpg' height='90'><img src='G_4.jpg' height='90'><br><br> Your final order is 1,2,3,4,5<br><br><br>Omgne Sort in this game will allow you to sort correctly by using the balance 8 times. Press Enter to learn it!""]","enter","",""
"","","","","","html-keyboard-response","49","385050","0.0-6.0","52","1","2025-01-29 23:05:34","af8d355d56820e421d246a7037deb6e6","108.234.90.222","Mozilla/5.0 (Windows NT 10.0; Win64; x64; rv:134.0) Gecko/20100101 Firefox/134.0","","Firefox","134.0","Windows","10.0","https://app.prolific.com/","en-US,en;q=0.5","5a8cba1a8fe2dc00010643f0","67949641171f97c04e14fb34","679ab429ebcf47617fe24215","","5174","<p>Welcome to the learning phase! <br><br> You will learn by six examples. The following learning trials will not be used to calculate your performance. <br><br> Press Enter to continue.<p/>","enter","",""
"","","","","","html-keyboard-response","50","397001","0.0-7.0","52","1","2025-01-29 23:05:34","af8d355d56820e421d246a7037deb6e6","108.234.90.222","Mozilla/5.0 (Windows NT 10.0; Win64; x64; rv:134.0) Gecko/20100101 Firefox/134.0","","Firefox","134.0","Windows","10.0","https://app.prolific.com/","en-US,en;q=0.5","5a8cba1a8fe2dc00010643f0","67949641171f97c04e14fb34","679ab429ebcf47617fe24215","","11951","[""Example 1<br><br>You will watch Omnge Sort in action. Try to identify any patterns in the comparisons made by this method. <br><br>Press Enter to continue.""]","enter","",""
"","","","","","html-keyboard-response","51","397518","0.0-8.0","52","1","2025-01-29 23:05:34","af8d355d56820e421d246a7037deb6e6","108.234.90.222","Mozilla/5.0 (Windows NT 10.0; Win64; x64; rv:134.0) Gecko/20100101 Firefox/134.0","","Firefox","134.0","Windows","10.0","https://app.prolific.com/","en-US,en;q=0.5","5a8cba1a8fe2dc00010643f0","67949641171f97c04e14fb34","679ab429ebcf47617fe24215","","null","<img id='selected' src='G_5.jpg' height='90'> <img src='G_1.jpg' height='90'> <img src='G_7.jpg' height='90'> <img src='G_9.jpg' height='90'> <img src='G_3.jpg' height='90'>","null","Animation0",""
"","","","","","html-keyboard-response","52","398027","0.0-9.0","52","1","2025-01-29 23:05:34","af8d355d56820e421d246a7037deb6e6","108.234.90.222","Mozilla/5.0 (Windows NT 10.0; Win64; x64; rv:134.0) Gecko/20100101 Firefox/134.0","","Firefox","134.0","Windows","10.0","https://app.prolific.com/","en-US,en;q=0.5","5a8cba1a8fe2dc00010643f0","67949641171f97c04e14fb34","679ab429ebcf47617fe24215","","null","<img id='selected' src='G_5.jpg' height='90'> <img id='selected' src='G_1.jpg' height='90'> <img src='G_7.jpg' height='90'> <img src='G_9.jpg' height='90'> <img src='G_3.jpg' height='90'>","null","Animation0",""
"","","","","","html-keyboard-response","53","398536","0.0-10.0","52","1","2025-01-29 23:05:34","af8d355d56820e421d246a7037deb6e6","108.234.90.222","Mozilla/5.0 (Windows NT 10.0; Win64; x64; rv:134.0) Gecko/20100101 Firefox/134.0","","Firefox","134.0","Windows","10.0","https://app.prolific.com/","en-US,en;q=0.5","5a8cba1a8fe2dc00010643f0","67949641171f97c04e14fb34","679ab429ebcf47617fe24215","","null","<img id='swapped' src='G_1.jpg' height='90'> <img id='swapped' src='G_5.jpg' height='90'> <img src='G_7.jpg' height='90'> <img src='G_9.jpg' height='90'> <img src='G_3.jpg' height='90'>","null","Animation0",""
"","","","","","html-keyboard-response","54","398846","0.0-11.0","52","1","2025-01-29 23:05:34","af8d355d56820e421d246a7037deb6e6","108.234.90.222","Mozilla/5.0 (Windows NT 10.0; Win64; x64; rv:134.0) Gecko/20100101 Firefox/134.0","","Firefox","134.0","Windows","10.0","https://app.prolific.com/","en-US,en;q=0.5","5a8cba1a8fe2dc00010643f0","67949641171f97c04e14fb34","679ab429ebcf47617fe24215","","null","<img  src='G_1.jpg' height='90'> <img  src='G_5.jpg' height='90'> <img src='G_7.jpg' height='90'> <img src='G_9.jpg' height='90'> <img src='G_3.jpg' height='90'>","null","Animation0",""
"","","","","","html-keyboard-response","55","399360","0.0-12.0","52","1","2025-01-29 23:05:34","af8d355d56820e421d246a7037deb6e6","108.234.90.222","Mozilla/5.0 (Windows NT 10.0; Win64; x64; rv:134.0) Gecko/20100101 Firefox/134.0","","Firefox","134.0","Windows","10.0","https://app.prolific.com/","en-US,en;q=0.5","5a8cba1a8fe2dc00010643f0","67949641171f97c04e14fb34","679ab429ebcf47617fe24215","","null","<img  src='G_1.jpg' height='90'> <img id='selected'  src='G_5.jpg' height='90'> <img src='G_7.jpg' height='90'> <img src='G_9.jpg' height='90'> <img src='G_3.jpg' height='90'>","null","Animation0",""
"","","","","","html-keyboard-response","56","399875","0.0-13.0","52","1","2025-01-29 23:05:34","af8d355d56820e421d246a7037deb6e6","108.234.90.222","Mozilla/5.0 (Windows NT 10.0; Win64; x64; rv:134.0) Gecko/20100101 Firefox/134.0","","Firefox","134.0","Windows","10.0","https://app.prolific.com/","en-US,en;q=0.5","5a8cba1a8fe2dc00010643f0","67949641171f97c04e14fb34","679ab429ebcf47617fe24215","","null","<img  src='G_1.jpg' height='90'> <img id='selected'  src='G_5.jpg' height='90'> <img id='selected' src='G_7.jpg' height='90'> <img src='G_9.jpg' height='90'> <img src='G_3.jpg' height='90'>","null","Animation0",""
"","","","","","html-keyboard-response","57","400390","0.0-14.0","52","1","2025-01-29 23:05:34","af8d355d56820e421d246a7037deb6e6","108.234.90.222","Mozilla/5.0 (Windows NT 10.0; Win64; x64; rv:134.0) Gecko/20100101 Firefox/134.0","","Firefox","134.0","Windows","10.0","https://app.prolific.com/","en-US,en;q=0.5","5a8cba1a8fe2dc00010643f0","67949641171f97c04e14fb34","679ab429ebcf47617fe24215","","null","<img  src='G_1.jpg' height='90'> <img id='selected'  src='G_5.jpg' height='90'> <img id='selected' src='G_7.jpg' height='90'> <img src='G_9.jpg' height='90'> <img src='G_3.jpg' height='90'>","null","Animation0",""
"","","","","","html-keyboard-response","58","400700","0.0-15.0","52","1","2025-01-29 23:05:34","af8d355d56820e421d246a7037deb6e6","108.234.90.222","Mozilla/5.0 (Windows NT 10.0; Win64; x64; rv:134.0) Gecko/20100101 Firefox/134.0","","Firefox","134.0","Windows","10.0","https://app.prolific.com/","en-US,en;q=0.5","5a8cba1a8fe2dc00010643f0","67949641171f97c04e14fb34","679ab429ebcf47617fe24215","","null","<img  src='G_1.jpg' height='90'> <img   src='G_5.jpg' height='90'> <img  src='G_7.jpg' height='90'> <img src='G_9.jpg' height='90'> <img src='G_3.jpg' height='90'>","null","Animation0",""
"","","","","","html-keyboard-response","59","401209","0.0-16.0","52","1","2025-01-29 23:05:34","af8d355d56820e421d246a7037deb6e6","108.234.90.222","Mozilla/5.0 (Windows NT 10.0; Win64; x64; rv:134.0) Gecko/20100101 Firefox/134.0","","Firefox","134.0","Windows","10.0","https://app.prolific.com/","en-US,en;q=0.5","5a8cba1a8fe2dc00010643f0","67949641171f97c04e14fb34","679ab429ebcf47617fe24215","","null","<img  src='G_1.jpg' height='90'> <img   src='G_5.jpg' height='90'> <img id='selected'  src='G_7.jpg' height='90'> <img src='G_9.jpg' height='90'> <img src='G_3.jpg' height='90'>","null","Animation0",""
"","","","","","html-keyboard-response","60","401720","0.0-17.0","52","1","2025-01-29 23:05:34","af8d355d56820e421d246a7037deb6e6","108.234.90.222","Mozilla/5.0 (Windows NT 10.0; Win64; x64; rv:134.0) Gecko/20100101 Firefox/134.0","","Firefox","134.0","Windows","10.0","https://app.prolific.com/","en-US,en;q=0.5","5a8cba1a8fe2dc00010643f0","67949641171f97c04e14fb34","679ab429ebcf47617fe24215","","null","<img  src='G_1.jpg' height='90'> <img   src='G_5.jpg' height='90'> <img id='selected'  src='G_7.jpg' height='90'> <img id='selected' src='G_9.jpg' height='90'> <img src='G_3.jpg' height='90'>","null","Animation0",""
"","","","","","html-keyboard-response","61","402233","0.0-18.0","52","1","2025-01-29 23:05:34","af8d355d56820e421d246a7037deb6e6","108.234.90.222","Mozilla/5.0 (Windows NT 10.0; Win64; x64; rv:134.0) Gecko/20100101 Firefox/134.0","","Firefox","134.0","Windows","10.0","https://app.prolific.com/","en-US,en;q=0.5","5a8cba1a8fe2dc00010643f0","67949641171f97c04e14fb34","679ab429ebcf47617fe24215","","null","<img  src='G_1.jpg' height='90'> <img   src='G_5.jpg' height='90'> <img id='selected'  src='G_7.jpg' height='90'> <img id='selected' src='G_9.jpg' height='90'> <img src='G_3.jpg' height='90'>","null","Animation0",""
"","","","","","html-keyboard-response","62","402541","0.0-19.0","52","1","2025-01-29 23:05:34","af8d355d56820e421d246a7037deb6e6","108.234.90.222","Mozilla/5.0 (Windows NT 10.0; Win64; x64; rv:134.0) Gecko/20100101 Firefox/134.0","","Firefox","134.0","Windows","10.0","https://app.prolific.com/","en-US,en;q=0.5","5a8cba1a8fe2dc00010643f0","67949641171f97c04e14fb34","679ab429ebcf47617fe24215","","null","<img  src='G_1.jpg' height='90'> <img   src='G_5.jpg' height='90'> <img   src='G_7.jpg' height='90'> <img  src='G_9.jpg' height='90'> <img src='G_3.jpg' height='90'>","null","Animation0",""
"","","","","","html-keyboard-response","63","403055","0.0-20.0","52","1","2025-01-29 23:05:34","af8d355d56820e421d246a7037deb6e6","108.234.90.222","Mozilla/5.0 (Windows NT 10.0; Win64; x64; rv:134.0) Gecko/20100101 Firefox/134.0","","Firefox","134.0","Windows","10.0","https://app.prolific.com/","en-US,en;q=0.5","5a8cba1a8fe2dc00010643f0","67949641171f97c04e14fb34","679ab429ebcf47617fe24215","","null","<img  src='G_1.jpg' height='90'> <img   src='G_5.jpg' height='90'> <img   src='G_7.jpg' height='90'> <img id='selected'  src='G_9.jpg' height='90'> <img src='G_3.jpg' height='90'>","null","Animation0",""
"","","","","","html-keyboard-response","64","403564","0.0-21.0","52","1","2025-01-29 23:05:34","af8d355d56820e421d246a7037deb6e6","108.234.90.222","Mozilla/5.0 (Windows NT 10.0; Win64; x64; rv:134.0) Gecko/20100101 Firefox/134.0","","Firefox","134.0","Windows","10.0","https://app.prolific.com/","en-US,en;q=0.5","5a8cba1a8fe2dc00010643f0","67949641171f97c04e14fb34","679ab429ebcf47617fe24215","","null","<img  src='G_1.jpg' height='90'> <img   src='G_5.jpg' height='90'> <img   src='G_7.jpg' height='90'> <img id='selected'  src='G_9.jpg' height='90'> <img id='selected' src='G_3.jpg' height='90'>","null","Animation0",""
"","","","","","html-keyboard-response","65","404074","0.0-22.0","52","1","2025-01-29 23:05:34","af8d355d56820e421d246a7037deb6e6","108.234.90.222","Mozilla/5.0 (Windows NT 10.0; Win64; x64; rv:134.0) Gecko/20100101 Firefox/134.0","","Firefox","134.0","Windows","10.0","https://app.prolific.com/","en-US,en;q=0.5","5a8cba1a8fe2dc00010643f0","67949641171f97c04e14fb34","679ab429ebcf47617fe24215","","null","<img  src='G_1.jpg' height='90'> <img   src='G_5.jpg' height='90'> <img   src='G_7.jpg' height='90'> <img id='selected'  src='G_9.jpg' height='90'> <img id='selected' src='G_3.jpg' height='90'>","null","Animation0",""
"","","","","","html-keyboard-response","66","404387","0.0-23.0","52","1","2025-01-29 23:05:34","af8d355d56820e421d246a7037deb6e6","108.234.90.222","Mozilla/5.0 (Windows NT 10.0; Win64; x64; rv:134.0) Gecko/20100101 Firefox/134.0","","Firefox","134.0","Windows","10.0","https://app.prolific.com/","en-US,en;q=0.5","5a8cba1a8fe2dc00010643f0","67949641171f97c04e14fb34","679ab429ebcf47617fe24215","","null","<img  src='G_1.jpg' height='90'> <img   src='G_5.jpg' height='90'> <img   src='G_7.jpg' height='90'> <img   src='G_9.jpg' height='90'> <img  src='G_3.jpg' height='90'>","null","Animation0",""
"","","","","","html-keyboard-response","67","407545","0.0-24.0","52","1","2025-01-29 23:05:34","af8d355d56820e421d246a7037deb6e6","108.234.90.222","Mozilla/5.0 (Windows NT 10.0; Win64; x64; rv:134.0) Gecko/20100101 Firefox/134.0","","Firefox","134.0","Windows","10.0","https://app.prolific.com/","en-US,en;q=0.5","5a8cba1a8fe2dc00010643f0","67949641171f97c04e14fb34","679ab429ebcf47617fe24215","","3155","[""Did you notice any patterns? <br><br>Press Enter to watch that example again and follow the steps of Omgne Sort.""]","enter","",""
"","","","","","html-button-response","68","407958","0.0-25.0","52","1","2025-01-29 23:05:34","af8d355d56820e421d246a7037deb6e6","108.234.90.222","Mozilla/5.0 (Windows NT 10.0; Win64; x64; rv:134.0) Gecko/20100101 Firefox/134.0","","Firefox","134.0","Windows","10.0","https://app.prolific.com/","en-US,en;q=0.5","5a8cba1a8fe2dc00010643f0","67949641171f97c04e14fb34","679ab429ebcf47617fe24215","","null","<img id='selected' src='G_5.jpg' height='90'> <img src='G_1.jpg' height='90'> <img src='G_7.jpg' height='90'> <img src='G_9.jpg' height='90'> <img src='G_3.jpg' height='90'>","null","Learning example 0",""
"","","","","","html-button-response","69","408269","0.0-26.0","52","1","2025-01-29 23:05:34","af8d355d56820e421d246a7037deb6e6","108.234.90.222","Mozilla/5.0 (Windows NT 10.0; Win64; x64; rv:134.0) Gecko/20100101 Firefox/134.0","","Firefox","134.0","Windows","10.0","https://app.prolific.com/","en-US,en;q=0.5","5a8cba1a8fe2dc00010643f0","67949641171f97c04e14fb34","679ab429ebcf47617fe24215","","null","<img id='selected' src='G_5.jpg' height='90'> <img id='selected' src='G_1.jpg' height='90'> <img src='G_7.jpg' height='90'> <img src='G_9.jpg' height='90'> <img src='G_3.jpg' height='90'>","null","Learning example 0",""
"","","","","","html-button-response","70","408578","0.0-27.0","52","1","2025-01-29 23:05:34","af8d355d56820e421d246a7037deb6e6","108.234.90.222","Mozilla/5.0 (Windows NT 10.0; Win64; x64; rv:134.0) Gecko/20100101 Firefox/134.0","","Firefox","134.0","Windows","10.0","https://app.prolific.com/","en-US,en;q=0.5","5a8cba1a8fe2dc00010643f0","67949641171f97c04e14fb34","679ab429ebcf47617fe24215","","null","<img id='swapped' src='G_1.jpg' height='90'> <img id='swapped' src='G_5.jpg' height='90'> <img src='G_7.jpg' height='90'> <img src='G_9.jpg' height='90'> <img src='G_3.jpg' height='90'>","null","Learning example 0",""
"","","","","","html-button-response","71","421210","0.0-28.0-0.0-0.0","52","1","2025-01-29 23:05:34","af8d355d56820e421d246a7037deb6e6","108.234.90.222","Mozilla/5.0 (Windows NT 10.0; Win64; x64; rv:134.0) Gecko/20100101 Firefox/134.0","","Firefox","134.0","Windows","10.0","https://app.prolific.com/","en-US,en;q=0.5","5a8cba1a8fe2dc00010643f0","67949641171f97c04e14fb34","679ab429ebcf47617fe24215","","12629","<img id='swapped' src='G_1.jpg' height='90'> <img id='swapped' src='G_5.jpg' height='90'> <img src='G_7.jpg' height='90'> <img src='G_9.jpg' height='90'> <img src='G_3.jpg' height='90'>","1","Learning example 0",""
"","","","","","html-button-response","72","422843","0.0-28.1-0.1-0.1","52","1","2025-01-29 23:05:34","af8d355d56820e421d246a7037deb6e6","108.234.90.222","Mozilla/5.0 (Windows NT 10.0; Win64; x64; rv:134.0) Gecko/20100101 Firefox/134.0","","Firefox","134.0","Windows","10.0","https://app.prolific.com/","en-US,en;q=0.5","5a8cba1a8fe2dc00010643f0","67949641171f97c04e14fb34","679ab429ebcf47617fe24215","","1632","<img id='swapped' src='G_1.jpg' height='90'> <img id='swapped' src='G_5.jpg' height='90'> <img src='G_7.jpg' height='90'> <img src='G_9.jpg' height='90'> <img src='G_3.jpg' height='90'>","0","Learning example 0",""
"","","","","","html-button-response","73","423047","0.0-29.0","52","1","2025-01-29 23:05:34","af8d355d56820e421d246a7037deb6e6","108.234.90.222","Mozilla/5.0 (Windows NT 10.0; Win64; x64; rv:134.0) Gecko/20100101 Firefox/134.0","","Firefox","134.0","Windows","10.0","https://app.prolific.com/","en-US,en;q=0.5","5a8cba1a8fe2dc00010643f0","67949641171f97c04e14fb34","679ab429ebcf47617fe24215","","null","<img  src='G_1.jpg' height='90'> <img  src='G_5.jpg' height='90'> <img src='G_7.jpg' height='90'> <img src='G_9.jpg' height='90'> <img src='G_3.jpg' height='90'>","null","Learning example 0",""
"","","","","","html-button-response","74","423453","0.0-30.0","52","1","2025-01-29 23:05:34","af8d355d56820e421d246a7037deb6e6","108.234.90.222","Mozilla/5.0 (Windows NT 10.0; Win64; x64; rv:134.0) Gecko/20100101 Firefox/134.0","","Firefox","134.0","Windows","10.0","https://app.prolific.com/","en-US,en;q=0.5","5a8cba1a8fe2dc00010643f0","67949641171f97c04e14fb34","679ab429ebcf47617fe24215","","null","<img  src='G_1.jpg' height='90'> <img id='selected'  src='G_5.jpg' height='90'> <img src='G_7.jpg' height='90'> <img src='G_9.jpg' height='90'> <img src='G_3.jpg' height='90'>","null","Learning example 0",""
"","","","","","html-button-response","75","423764","0.0-31.0","52","1","2025-01-29 23:05:34","af8d355d56820e421d246a7037deb6e6","108.234.90.222","Mozilla/5.0 (Windows NT 10.0; Win64; x64; rv:134.0) Gecko/20100101 Firefox/134.0","","Firefox","134.0","Windows","10.0","https://app.prolific.com/","en-US,en;q=0.5","5a8cba1a8fe2dc00010643f0","67949641171f97c04e14fb34","679ab429ebcf47617fe24215","","null","<img  src='G_1.jpg' height='90'> <img id='selected'  src='G_5.jpg' height='90'> <img id='selected' src='G_7.jpg' height='90'> <img src='G_9.jpg' height='90'> <img src='G_3.jpg' height='90'>","null","Learning example 0",""
"","","","","","html-button-response","76","424075","0.0-32.0","52","1","2025-01-29 23:05:34","af8d355d56820e421d246a7037deb6e6","108.234.90.222","Mozilla/5.0 (Windows NT 10.0; Win64; x64; rv:134.0) Gecko/20100101 Firefox/134.0","","Firefox","134.0","Windows","10.0","https://app.prolific.com/","en-US,en;q=0.5","5a8cba1a8fe2dc00010643f0","67949641171f97c04e14fb34","679ab429ebcf47617fe24215","","null","<img  src='G_1.jpg' height='90'> <img id='selected'  src='G_5.jpg' height='90'> <img id='selected' src='G_7.jpg' height='90'> <img src='G_9.jpg' height='90'> <img src='G_3.jpg' height='90'>","null","Learning example 0",""
"","","","","","html-button-response","77","428546","0.0-33.0-0.0-0.0","52","1","2025-01-29 23:05:34","af8d355d56820e421d246a7037deb6e6","108.234.90.222","Mozilla/5.0 (Windows NT 10.0; Win64; x64; rv:134.0) Gecko/20100101 Firefox/134.0","","Firefox","134.0","Windows","10.0","https://app.prolific.com/","en-US,en;q=0.5","5a8cba1a8fe2dc00010643f0","67949641171f97c04e14fb34","679ab429ebcf47617fe24215","","4467","<img  src='G_1.jpg' height='90'> <img id='selected'  src='G_5.jpg' height='90'> <img id='selected' src='G_7.jpg' height='90'> <img src='G_9.jpg' height='90'> <img src='G_3.jpg' height='90'>","1","Learning example 0",""
"","","","","","html-button-response","78","429091","0.0-33.1-0.1-0.1","52","1","2025-01-29 23:05:34","af8d355d56820e421d246a7037deb6e6","108.234.90.222","Mozilla/5.0 (Windows NT 10.0; Win64; x64; rv:134.0) Gecko/20100101 Firefox/134.0","","Firefox","134.0","Windows","10.0","https://app.prolific.com/","en-US,en;q=0.5","5a8cba1a8fe2dc00010643f0","67949641171f97c04e14fb34","679ab429ebcf47617fe24215","","543","<img  src='G_1.jpg' height='90'> <img id='selected'  src='G_5.jpg' height='90'> <img id='selected' src='G_7.jpg' height='90'> <img src='G_9.jpg' height='90'> <img src='G_3.jpg' height='90'>","2","Learning example 0",""
"","","","","","html-button-response","79","429306","0.0-34.0","52","1","2025-01-29 23:05:34","af8d355d56820e421d246a7037deb6e6","108.234.90.222","Mozilla/5.0 (Windows NT 10.0; Win64; x64; rv:134.0) Gecko/20100101 Firefox/134.0","","Firefox","134.0","Windows","10.0","https://app.prolific.com/","en-US,en;q=0.5","5a8cba1a8fe2dc00010643f0","67949641171f97c04e14fb34","679ab429ebcf47617fe24215","","null","<img  src='G_1.jpg' height='90'> <img   src='G_5.jpg' height='90'> <img  src='G_7.jpg' height='90'> <img src='G_9.jpg' height='90'> <img src='G_3.jpg' height='90'>","null","Learning example 0",""
"","","","","","html-button-response","80","429709","0.0-35.0","52","1","2025-01-29 23:05:34","af8d355d56820e421d246a7037deb6e6","108.234.90.222","Mozilla/5.0 (Windows NT 10.0; Win64; x64; rv:134.0) Gecko/20100101 Firefox/134.0","","Firefox","134.0","Windows","10.0","https://app.prolific.com/","en-US,en;q=0.5","5a8cba1a8fe2dc00010643f0","67949641171f97c04e14fb34","679ab429ebcf47617fe24215","","null","<img  src='G_1.jpg' height='90'> <img   src='G_5.jpg' height='90'> <img id='selected'  src='G_7.jpg' height='90'> <img src='G_9.jpg' height='90'> <img src='G_3.jpg' height='90'>","null","Learning example 0",""
"","","","","","html-button-response","81","430017","0.0-36.0","52","1","2025-01-29 23:05:34","af8d355d56820e421d246a7037deb6e6","108.234.90.222","Mozilla/5.0 (Windows NT 10.0; Win64; x64; rv:134.0) Gecko/20100101 Firefox/134.0","","Firefox","134.0","Windows","10.0","https://app.prolific.com/","en-US,en;q=0.5","5a8cba1a8fe2dc00010643f0","67949641171f97c04e14fb34","679ab429ebcf47617fe24215","","null","<img  src='G_1.jpg' height='90'> <img   src='G_5.jpg' height='90'> <img id='selected'  src='G_7.jpg' height='90'> <img id='selected' src='G_9.jpg' height='90'> <img src='G_3.jpg' height='90'>","null","Learning example 0",""
"","","","","","html-button-response","82","430326","0.0-37.0","52","1","2025-01-29 23:05:34","af8d355d56820e421d246a7037deb6e6","108.234.90.222","Mozilla/5.0 (Windows NT 10.0; Win64; x64; rv:134.0) Gecko/20100101 Firefox/134.0","","Firefox","134.0","Windows","10.0","https://app.prolific.com/","en-US,en;q=0.5","5a8cba1a8fe2dc00010643f0","67949641171f97c04e14fb34","679ab429ebcf47617fe24215","","null","<img  src='G_1.jpg' height='90'> <img   src='G_5.jpg' height='90'> <img id='selected'  src='G_7.jpg' height='90'> <img id='selected' src='G_9.jpg' height='90'> <img src='G_3.jpg' height='90'>","null","Learning example 0",""
"","","","","","html-button-response","83","431313","0.0-38.0-0.0-0.0","52","1","2025-01-29 23:05:34","af8d355d56820e421d246a7037deb6e6","108.234.90.222","Mozilla/5.0 (Windows NT 10.0; Win64; x64; rv:134.0) Gecko/20100101 Firefox/134.0","","Firefox","134.0","Windows","10.0","https://app.prolific.com/","en-US,en;q=0.5","5a8cba1a8fe2dc00010643f0","67949641171f97c04e14fb34","679ab429ebcf47617fe24215","","985","<img  src='G_1.jpg' height='90'> <img   src='G_5.jpg' height='90'> <img id='selected'  src='G_7.jpg' height='90'> <img id='selected' src='G_9.jpg' height='90'> <img src='G_3.jpg' height='90'>","2","Learning example 0",""
"","","","","","html-button-response","84","431842","0.0-38.1-0.1-0.1","52","1","2025-01-29 23:05:34","af8d355d56820e421d246a7037deb6e6","108.234.90.222","Mozilla/5.0 (Windows NT 10.0; Win64; x64; rv:134.0) Gecko/20100101 Firefox/134.0","","Firefox","134.0","Windows","10.0","https://app.prolific.com/","en-US,en;q=0.5","5a8cba1a8fe2dc00010643f0","67949641171f97c04e14fb34","679ab429ebcf47617fe24215","","526","<img  src='G_1.jpg' height='90'> <img   src='G_5.jpg' height='90'> <img id='selected'  src='G_7.jpg' height='90'> <img id='selected' src='G_9.jpg' height='90'> <img src='G_3.jpg' height='90'>","3","Learning example 0",""
"","","","","","html-button-response","85","432050","0.0-39.0","52","1","2025-01-29 23:05:34","af8d355d56820e421d246a7037deb6e6","108.234.90.222","Mozilla/5.0 (Windows NT 10.0; Win64; x64; rv:134.0) Gecko/20100101 Firefox/134.0","","Firefox","134.0","Windows","10.0","https://app.prolific.com/","en-US,en;q=0.5","5a8cba1a8fe2dc00010643f0","67949641171f97c04e14fb34","679ab429ebcf47617fe24215","","null","<img  src='G_1.jpg' height='90'> <img   src='G_5.jpg' height='90'> <img   src='G_7.jpg' height='90'> <img  src='G_9.jpg' height='90'> <img src='G_3.jpg' height='90'>","null","Learning example 0",""
"","","","","","html-button-response","86","432470","0.0-40.0","52","1","2025-01-29 23:05:34","af8d355d56820e421d246a7037deb6e6","108.234.90.222","Mozilla/5.0 (Windows NT 10.0; Win64; x64; rv:134.0) Gecko/20100101 Firefox/134.0","","Firefox","134.0","Windows","10.0","https://app.prolific.com/","en-US,en;q=0.5","5a8cba1a8fe2dc00010643f0","67949641171f97c04e14fb34","679ab429ebcf47617fe24215","","null","<img  src='G_1.jpg' height='90'> <img   src='G_5.jpg' height='90'> <img   src='G_7.jpg' height='90'> <img id='selected'  src='G_9.jpg' height='90'> <img src='G_3.jpg' height='90'>","null","Learning example 0",""
"","","","","","html-button-response","87","432781","0.0-41.0","52","1","2025-01-29 23:05:34","af8d355d56820e421d246a7037deb6e6","108.234.90.222","Mozilla/5.0 (Windows NT 10.0; Win64; x64; rv:134.0) Gecko/20100101 Firefox/134.0","","Firefox","134.0","Windows","10.0","https://app.prolific.com/","en-US,en;q=0.5","5a8cba1a8fe2dc00010643f0","67949641171f97c04e14fb34","679ab429ebcf47617fe24215","","null","<img  src='G_1.jpg' height='90'> <img   src='G_5.jpg' height='90'> <img   src='G_7.jpg' height='90'> <img id='selected'  src='G_9.jpg' height='90'> <img id='selected' src='G_3.jpg' height='90'>","null","Learning example 0",""
"","","","","","html-button-response","88","433090","0.0-42.0","52","1","2025-01-29 23:05:34","af8d355d56820e421d246a7037deb6e6","108.234.90.222","Mozilla/5.0 (Windows NT 10.0; Win64; x64; rv:134.0) Gecko/20100101 Firefox/134.0","","Firefox","134.0","Windows","10.0","https://app.prolific.com/","en-US,en;q=0.5","5a8cba1a8fe2dc00010643f0","67949641171f97c04e14fb34","679ab429ebcf47617fe24215","","null","<img  src='G_1.jpg' height='90'> <img   src='G_5.jpg' height='90'> <img   src='G_7.jpg' height='90'> <img id='selected'  src='G_9.jpg' height='90'> <img id='selected' src='G_3.jpg' height='90'>","null","Learning example 0",""
"","","","","","html-button-response","89","433546","0.0-43.0-0.0-0.0","52","1","2025-01-29 23:05:34","af8d355d56820e421d246a7037deb6e6","108.234.90.222","Mozilla/5.0 (Windows NT 10.0; Win64; x64; rv:134.0) Gecko/20100101 Firefox/134.0","","Firefox","134.0","Windows","10.0","https://app.prolific.com/","en-US,en;q=0.5","5a8cba1a8fe2dc00010643f0","67949641171f97c04e14fb34","679ab429ebcf47617fe24215","","450","<img  src='G_1.jpg' height='90'> <img   src='G_5.jpg' height='90'> <img   src='G_7.jpg' height='90'> <img id='selected'  src='G_9.jpg' height='90'> <img id='selected' src='G_3.jpg' height='90'>","3","Learning example 0",""
"","","","","","html-button-response","90","434026","0.0-43.1-0.1-0.1","52","1","2025-01-29 23:05:34","af8d355d56820e421d246a7037deb6e6","108.234.90.222","Mozilla/5.0 (Windows NT 10.0; Win64; x64; rv:134.0) Gecko/20100101 Firefox/134.0","","Firefox","134.0","Windows","10.0","https://app.prolific.com/","en-US,en;q=0.5","5a8cba1a8fe2dc00010643f0","67949641171f97c04e14fb34","679ab429ebcf47617fe24215","","479","<img  src='G_1.jpg' height='90'> <img   src='G_5.jpg' height='90'> <img   src='G_7.jpg' height='90'> <img id='selected'  src='G_9.jpg' height='90'> <img id='selected' src='G_3.jpg' height='90'>","4","Learning example 0",""
"","","","","","html-button-response","91","434238","0.0-44.0","52","1","2025-01-29 23:05:34","af8d355d56820e421d246a7037deb6e6","108.234.90.222","Mozilla/5.0 (Windows NT 10.0; Win64; x64; rv:134.0) Gecko/20100101 Firefox/134.0","","Firefox","134.0","Windows","10.0","https://app.prolific.com/","en-US,en;q=0.5","5a8cba1a8fe2dc00010643f0","67949641171f97c04e14fb34","679ab429ebcf47617fe24215","","null","<img  src='G_1.jpg' height='90'> <img   src='G_5.jpg' height='90'> <img   src='G_7.jpg' height='90'> <img   src='G_9.jpg' height='90'> <img  src='G_3.jpg' height='90'>","null","Learning example 0",""
"","","","","","html-keyboard-response","92","438730","0.0-45.0","52","1","2025-01-29 23:05:34","af8d355d56820e421d246a7037deb6e6","108.234.90.222","Mozilla/5.0 (Windows NT 10.0; Win64; x64; rv:134.0) Gecko/20100101 Firefox/134.0","","Firefox","134.0","Windows","10.0","https://app.prolific.com/","en-US,en;q=0.5","5a8cba1a8fe2dc00010643f0","67949641171f97c04e14fb34","679ab429ebcf47617fe24215","","4487","[""Final order was 1,2,3,4,5. The initial order was 2,1,3,4,5.<br>It took 1 swaps to sort it correctly with Omgne Sort. <br><br>Press Enter to continue.""]","enter","",""
"","","","","","html-keyboard-response","93","442625","0.0-46.0","52","1","2025-01-29 23:05:34","af8d355d56820e421d246a7037deb6e6","108.234.90.222","Mozilla/5.0 (Windows NT 10.0; Win64; x64; rv:134.0) Gecko/20100101 Firefox/134.0","","Firefox","134.0","Windows","10.0","https://app.prolific.com/","en-US,en;q=0.5","5a8cba1a8fe2dc00010643f0","67949641171f97c04e14fb34","679ab429ebcf47617fe24215","","3894","[""Example 2<br><br>You will watch Omnge Sort in action. Try to identify any patterns in the comparisons made by this method. <br><br>Press Enter to continue.""]","enter","",""
"","","","","","html-keyboard-response","94","443141","0.0-47.0","52","1","2025-01-29 23:05:34","af8d355d56820e421d246a7037deb6e6","108.234.90.222","Mozilla/5.0 (Windows NT 10.0; Win64; x64; rv:134.0) Gecko/20100101 Firefox/134.0","","Firefox","134.0","Windows","10.0","https://app.prolific.com/","en-US,en;q=0.5","5a8cba1a8fe2dc00010643f0","67949641171f97c04e14fb34","679ab429ebcf47617fe24215","","null","<img id='selected' src='G_7.jpg' height='90'> <img src='G_3.jpg' height='90'> <img src='G_2.jpg' height='90'> <img src='G_1.jpg' height='90'> <img src='G_6.jpg' height='90'> <img src='G_4.jpg' height='90'> <img src='G_8.jpg' height='90'> <img src='G_5.jpg' height='90'>","null","Animation1",""
"","","","","","html-keyboard-response","95","443655","0.0-48.0","52","1","2025-01-29 23:05:34","af8d355d56820e421d246a7037deb6e6","108.234.90.222","Mozilla/5.0 (Windows NT 10.0; Win64; x64; rv:134.0) Gecko/20100101 Firefox/134.0","","Firefox","134.0","Windows","10.0","https://app.prolific.com/","en-US,en;q=0.5","5a8cba1a8fe2dc00010643f0","67949641171f97c04e14fb34","679ab429ebcf47617fe24215","","null","<img id='selected' src='G_7.jpg' height='90'> <img id='selected' src='G_3.jpg' height='90'> <img src='G_2.jpg' height='90'> <img src='G_1.jpg' height='90'> <img src='G_6.jpg' height='90'> <img src='G_4.jpg' height='90'> <img src='G_8.jpg' height='90'> <img src='G_5.jpg' height='90'>","null","Animation1",""
"","","","","","html-keyboard-response","96","444167","0.0-49.0","52","1","2025-01-29 23:05:34","af8d355d56820e421d246a7037deb6e6","108.234.90.222","Mozilla/5.0 (Windows NT 10.0; Win64; x64; rv:134.0) Gecko/20100101 Firefox/134.0","","Firefox","134.0","Windows","10.0","https://app.prolific.com/","en-US,en;q=0.5","5a8cba1a8fe2dc00010643f0","67949641171f97c04e14fb34","679ab429ebcf47617fe24215","","null","<img id='selected' src='G_7.jpg' height='90'> <img id='selected' src='G_3.jpg' height='90'> <img src='G_2.jpg' height='90'> <img src='G_1.jpg' height='90'> <img src='G_6.jpg' height='90'> <img src='G_4.jpg' height='90'> <img src='G_8.jpg' height='90'> <img src='G_5.jpg' height='90'>","null","Animation1",""
"","","","","","html-keyboard-response","97","444479","0.0-50.0","52","1","2025-01-29 23:05:34","af8d355d56820e421d246a7037deb6e6","108.234.90.222","Mozilla/5.0 (Windows NT 10.0; Win64; x64; rv:134.0) Gecko/20100101 Firefox/134.0","","Firefox","134.0","Windows","10.0","https://app.prolific.com/","en-US,en;q=0.5","5a8cba1a8fe2dc00010643f0","67949641171f97c04e14fb34","679ab429ebcf47617fe24215","","null","<img  src='G_7.jpg' height='90'> <img  src='G_3.jpg' height='90'> <img src='G_2.jpg' height='90'> <img src='G_1.jpg' height='90'> <img src='G_6.jpg' height='90'> <img src='G_4.jpg' height='90'> <img src='G_8.jpg' height='90'> <img src='G_5.jpg' height='90'>","null","Animation1",""
"","","","","","html-keyboard-response","98","444992","0.0-51.0","52","1","2025-01-29 23:05:34","af8d355d56820e421d246a7037deb6e6","108.234.90.222","Mozilla/5.0 (Windows NT 10.0; Win64; x64; rv:134.0) Gecko/20100101 Firefox/134.0","","Firefox","134.0","Windows","10.0","https://app.prolific.com/","en-US,en;q=0.5","5a8cba1a8fe2dc00010643f0","67949641171f97c04e14fb34","679ab429ebcf47617fe24215","","null","<img  src='G_7.jpg' height='90'> <img id='selected'  src='G_3.jpg' height='90'> <img src='G_2.jpg' height='90'> <img src='G_1.jpg' height='90'> <img src='G_6.jpg' height='90'> <img src='G_4.jpg' height='90'> <img src='G_8.jpg' height='90'> <img src='G_5.jpg' height='90'>","null","Animation1",""
"","","","","","html-keyboard-response","99","445506","0.0-52.0","52","1","2025-01-29 23:05:34","af8d355d56820e421d246a7037deb6e6","108.234.90.222","Mozilla/5.0 (Windows NT 10.0; Win64; x64; rv:134.0) Gecko/20100101 Firefox/134.0","","Firefox","134.0","Windows","10.0","https://app.prolific.com/","en-US,en;q=0.5","5a8cba1a8fe2dc00010643f0","67949641171f97c04e14fb34","679ab429ebcf47617fe24215","","null","<img  src='G_7.jpg' height='90'> <img id='selected'  src='G_3.jpg' height='90'> <img id='selected' src='G_2.jpg' height='90'> <img src='G_1.jpg' height='90'> <img src='G_6.jpg' height='90'> <img src='G_4.jpg' height='90'> <img src='G_8.jpg' height='90'> <img src='G_5.jpg' height='90'>","null","Animation1",""
"","","","","","html-keyboard-response","100","446018","0.0-53.0","52","1","2025-01-29 23:05:34","af8d355d56820e421d246a7037deb6e6","108.234.90.222","Mozilla/5.0 (Windows NT 10.0; Win64; x64; rv:134.0) Gecko/20100101 Firefox/134.0","","Firefox","134.0","Windows","10.0","https://app.prolific.com/","en-US,en;q=0.5","5a8cba1a8fe2dc00010643f0","67949641171f97c04e14fb34","679ab429ebcf47617fe24215","","null","<img  src='G_7.jpg' height='90'> <img id='swapped' src='G_2.jpg' height='90'> <img id='swapped'  src='G_3.jpg' height='90'> <img src='G_1.jpg' height='90'> <img src='G_6.jpg' height='90'> <img src='G_4.jpg' height='90'> <img src='G_8.jpg' height='90'> <img src='G_5.jpg' height='90'>","null","Animation1",""
"","","","","","html-keyboard-response","101","446331","0.0-54.0","52","1","2025-01-29 23:05:34","af8d355d56820e421d246a7037deb6e6","108.234.90.222","Mozilla/5.0 (Windows NT 10.0; Win64; x64; rv:134.0) Gecko/20100101 Firefox/134.0","","Firefox","134.0","Windows","10.0","https://app.prolific.com/","en-US,en;q=0.5","5a8cba1a8fe2dc00010643f0","67949641171f97c04e14fb34","679ab429ebcf47617fe24215","","null","<img  src='G_7.jpg' height='90'> <img  src='G_2.jpg' height='90'> <img   src='G_3.jpg' height='90'> <img src='G_1.jpg' height='90'> <img src='G_6.jpg' height='90'> <img src='G_4.jpg' height='90'> <img src='G_8.jpg' height='90'> <img src='G_5.jpg' height='90'>","null","Animation1",""
"","","","","","html-keyboard-response","102","446844","0.0-55.0","52","1","2025-01-29 23:05:34","af8d355d56820e421d246a7037deb6e6","108.234.90.222","Mozilla/5.0 (Windows NT 10.0; Win64; x64; rv:134.0) Gecko/20100101 Firefox/134.0","","Firefox","134.0","Windows","10.0","https://app.prolific.com/","en-US,en;q=0.5","5a8cba1a8fe2dc00010643f0","67949641171f97c04e14fb34","679ab429ebcf47617fe24215","","null","<img id='selected'  src='G_7.jpg' height='90'> <img  src='G_2.jpg' height='90'> <img   src='G_3.jpg' height='90'> <img src='G_1.jpg' height='90'> <img src='G_6.jpg' height='90'> <img src='G_4.jpg' height='90'> <img src='G_8.jpg' height='90'> <img src='G_5.jpg' height='90'>","null","Animation1",""
"","","","","","html-keyboard-response","103","447359","0.0-56.0","52","1","2025-01-29 23:05:34","af8d355d56820e421d246a7037deb6e6","108.234.90.222","Mozilla/5.0 (Windows NT 10.0; Win64; x64; rv:134.0) Gecko/20100101 Firefox/134.0","","Firefox","134.0","Windows","10.0","https://app.prolific.com/","en-US,en;q=0.5","5a8cba1a8fe2dc00010643f0","67949641171f97c04e14fb34","679ab429ebcf47617fe24215","","null","<img id='selected'  src='G_7.jpg' height='90'> <img id='selected'  src='G_2.jpg' height='90'> <img   src='G_3.jpg' height='90'> <img src='G_1.jpg' height='90'> <img src='G_6.jpg' height='90'> <img src='G_4.jpg' height='90'> <img src='G_8.jpg' height='90'> <img src='G_5.jpg' height='90'>","null","Animation1",""
"","","","","","html-keyboard-response","104","447876","0.0-57.0","52","1","2025-01-29 23:05:34","af8d355d56820e421d246a7037deb6e6","108.234.90.222","Mozilla/5.0 (Windows NT 10.0; Win64; x64; rv:134.0) Gecko/20100101 Firefox/134.0","","Firefox","134.0","Windows","10.0","https://app.prolific.com/","en-US,en;q=0.5","5a8cba1a8fe2dc00010643f0","67949641171f97c04e14fb34","679ab429ebcf47617fe24215","","null","<img id='swapped'  src='G_2.jpg' height='90'> <img id='swapped'  src='G_7.jpg' height='90'> <img   src='G_3.jpg' height='90'> <img src='G_1.jpg' height='90'> <img src='G_6.jpg' height='90'> <img src='G_4.jpg' height='90'> <img src='G_8.jpg' height='90'> <img src='G_5.jpg' height='90'>","null","Animation1",""
"","","","","","html-keyboard-response","105","448186","0.0-58.0","52","1","2025-01-29 23:05:34","af8d355d56820e421d246a7037deb6e6","108.234.90.222","Mozilla/5.0 (Windows NT 10.0; Win64; x64; rv:134.0) Gecko/20100101 Firefox/134.0","","Firefox","134.0","Windows","10.0","https://app.prolific.com/","en-US,en;q=0.5","5a8cba1a8fe2dc00010643f0","67949641171f97c04e14fb34","679ab429ebcf47617fe24215","","null","<img   src='G_2.jpg' height='90'> <img   src='G_7.jpg' height='90'> <img   src='G_3.jpg' height='90'> <img src='G_1.jpg' height='90'> <img src='G_6.jpg' height='90'> <img src='G_4.jpg' height='90'> <img src='G_8.jpg' height='90'> <img src='G_5.jpg' height='90'>","null","Animation1",""
"","","","","","html-keyboard-response","106","448700","0.0-59.0","52","1","2025-01-29 23:05:34","af8d355d56820e421d246a7037deb6e6","108.234.90.222","Mozilla/5.0 (Windows NT 10.0; Win64; x64; rv:134.0) Gecko/20100101 Firefox/134.0","","Firefox","134.0","Windows","10.0","https://app.prolific.com/","en-US,en;q=0.5","5a8cba1a8fe2dc00010643f0","67949641171f97c04e14fb34","679ab429ebcf47617fe24215","","null","<img   src='G_2.jpg' height='90'> <img   src='G_7.jpg' height='90'> <img id='selected'   src='G_3.jpg' height='90'> <img src='G_1.jpg' height='90'> <img src='G_6.jpg' height='90'> <img src='G_4.jpg' height='90'> <img src='G_8.jpg' height='90'> <img src='G_5.jpg' height='90'>","null","Animation1",""
"","","","","","html-keyboard-response","107","449214","0.0-60.0","52","1","2025-01-29 23:05:34","af8d355d56820e421d246a7037deb6e6","108.234.90.222","Mozilla/5.0 (Windows NT 10.0; Win64; x64; rv:134.0) Gecko/20100101 Firefox/134.0","","Firefox","134.0","Windows","10.0","https://app.prolific.com/","en-US,en;q=0.5","5a8cba1a8fe2dc00010643f0","67949641171f97c04e14fb34","679ab429ebcf47617fe24215","","null","<img   src='G_2.jpg' height='90'> <img   src='G_7.jpg' height='90'> <img id='selected'   src='G_3.jpg' height='90'> <img id='selected' src='G_1.jpg' height='90'> <img src='G_6.jpg' height='90'> <img src='G_4.jpg' height='90'> <img src='G_8.jpg' height='90'> <img src='G_5.jpg' height='90'>","null","Animation1",""
"","","","","","html-keyboard-response","108","449725","0.0-61.0","52","1","2025-01-29 23:05:34","af8d355d56820e421d246a7037deb6e6","108.234.90.222","Mozilla/5.0 (Windows NT 10.0; Win64; x64; rv:134.0) Gecko/20100101 Firefox/134.0","","Firefox","134.0","Windows","10.0","https://app.prolific.com/","en-US,en;q=0.5","5a8cba1a8fe2dc00010643f0","67949641171f97c04e14fb34","679ab429ebcf47617fe24215","","null","<img   src='G_2.jpg' height='90'> <img   src='G_7.jpg' height='90'> <img id='swapped' src='G_1.jpg' height='90'> <img id='swapped'   src='G_3.jpg' height='90'> <img src='G_6.jpg' height='90'> <img src='G_4.jpg' height='90'> <img src='G_8.jpg' height='90'> <img src='G_5.jpg' height='90'>","null","Animation1",""
"","","","","","html-keyboard-response","109","450035","0.0-62.0","52","1","2025-01-29 23:05:34","af8d355d56820e421d246a7037deb6e6","108.234.90.222","Mozilla/5.0 (Windows NT 10.0; Win64; x64; rv:134.0) Gecko/20100101 Firefox/134.0","","Firefox","134.0","Windows","10.0","https://app.prolific.com/","en-US,en;q=0.5","5a8cba1a8fe2dc00010643f0","67949641171f97c04e14fb34","679ab429ebcf47617fe24215","","null","<img   src='G_2.jpg' height='90'> <img   src='G_7.jpg' height='90'> <img  src='G_1.jpg' height='90'> <img    src='G_3.jpg' height='90'> <img src='G_6.jpg' height='90'> <img src='G_4.jpg' height='90'> <img src='G_8.jpg' height='90'> <img src='G_5.jpg' height='90'>","null","Animation1",""
"","","","","","html-keyboard-response","110","450545","0.0-63.0","52","1","2025-01-29 23:05:34","af8d355d56820e421d246a7037deb6e6","108.234.90.222","Mozilla/5.0 (Windows NT 10.0; Win64; x64; rv:134.0) Gecko/20100101 Firefox/134.0","","Firefox","134.0","Windows","10.0","https://app.prolific.com/","en-US,en;q=0.5","5a8cba1a8fe2dc00010643f0","67949641171f97c04e14fb34","679ab429ebcf47617fe24215","","null","<img   src='G_2.jpg' height='90'> <img id='selected'   src='G_7.jpg' height='90'> <img  src='G_1.jpg' height='90'> <img    src='G_3.jpg' height='90'> <img src='G_6.jpg' height='90'> <img src='G_4.jpg' height='90'> <img src='G_8.jpg' height='90'> <img src='G_5.jpg' height='90'>","null","Animation1",""
"","","","","","html-keyboard-response","111","451058","0.0-64.0","52","1","2025-01-29 23:05:34","af8d355d56820e421d246a7037deb6e6","108.234.90.222","Mozilla/5.0 (Windows NT 10.0; Win64; x64; rv:134.0) Gecko/20100101 Firefox/134.0","","Firefox","134.0","Windows","10.0","https://app.prolific.com/","en-US,en;q=0.5","5a8cba1a8fe2dc00010643f0","67949641171f97c04e14fb34","679ab429ebcf47617fe24215","","null","<img   src='G_2.jpg' height='90'> <img id='selected'   src='G_7.jpg' height='90'> <img id='selected'  src='G_1.jpg' height='90'> <img    src='G_3.jpg' height='90'> <img src='G_6.jpg' height='90'> <img src='G_4.jpg' height='90'> <img src='G_8.jpg' height='90'> <img src='G_5.jpg' height='90'>","null","Animation1",""
"","","","","","html-keyboard-response","112","451570","0.0-65.0","52","1","2025-01-29 23:05:34","af8d355d56820e421d246a7037deb6e6","108.234.90.222","Mozilla/5.0 (Windows NT 10.0; Win64; x64; rv:134.0) Gecko/20100101 Firefox/134.0","","Firefox","134.0","Windows","10.0","https://app.prolific.com/","en-US,en;q=0.5","5a8cba1a8fe2dc00010643f0","67949641171f97c04e14fb34","679ab429ebcf47617fe24215","","null","<img   src='G_2.jpg' height='90'> <img id='swapped'  src='G_1.jpg' height='90'> <img id='swapped'   src='G_7.jpg' height='90'> <img    src='G_3.jpg' height='90'> <img src='G_6.jpg' height='90'> <img src='G_4.jpg' height='90'> <img src='G_8.jpg' height='90'> <img src='G_5.jpg' height='90'>","null","Animation1",""
"","","","","","html-keyboard-response","113","451882","0.0-66.0","52","1","2025-01-29 23:05:34","af8d355d56820e421d246a7037deb6e6","108.234.90.222","Mozilla/5.0 (Windows NT 10.0; Win64; x64; rv:134.0) Gecko/20100101 Firefox/134.0","","Firefox","134.0","Windows","10.0","https://app.prolific.com/","en-US,en;q=0.5","5a8cba1a8fe2dc00010643f0","67949641171f97c04e14fb34","679ab429ebcf47617fe24215","","null","<img   src='G_2.jpg' height='90'> <img   src='G_1.jpg' height='90'> <img    src='G_7.jpg' height='90'> <img    src='G_3.jpg' height='90'> <img src='G_6.jpg' height='90'> <img src='G_4.jpg' height='90'> <img src='G_8.jpg' height='90'> <img src='G_5.jpg' height='90'>","null","Animation1",""
"","","","","","html-keyboard-response","114","452398","0.0-67.0","52","1","2025-01-29 23:05:34","af8d355d56820e421d246a7037deb6e6","108.234.90.222","Mozilla/5.0 (Windows NT 10.0; Win64; x64; rv:134.0) Gecko/20100101 Firefox/134.0","","Firefox","134.0","Windows","10.0","https://app.prolific.com/","en-US,en;q=0.5","5a8cba1a8fe2dc00010643f0","67949641171f97c04e14fb34","679ab429ebcf47617fe24215","","null","<img id='selected'   src='G_2.jpg' height='90'> <img   src='G_1.jpg' height='90'> <img    src='G_7.jpg' height='90'> <img    src='G_3.jpg' height='90'> <img src='G_6.jpg' height='90'> <img src='G_4.jpg' height='90'> <img src='G_8.jpg' height='90'> <img src='G_5.jpg' height='90'>","null","Animation1",""
"","","","","","html-keyboard-response","115","452913","0.0-68.0","52","1","2025-01-29 23:05:34","af8d355d56820e421d246a7037deb6e6","108.234.90.222","Mozilla/5.0 (Windows NT 10.0; Win64; x64; rv:134.0) Gecko/20100101 Firefox/134.0","","Firefox","134.0","Windows","10.0","https://app.prolific.com/","en-US,en;q=0.5","5a8cba1a8fe2dc00010643f0","67949641171f97c04e14fb34","679ab429ebcf47617fe24215","","null","<img id='selected'   src='G_2.jpg' height='90'> <img id='selected'   src='G_1.jpg' height='90'> <img    src='G_7.jpg' height='90'> <img    src='G_3.jpg' height='90'> <img src='G_6.jpg' height='90'> <img src='G_4.jpg' height='90'> <img src='G_8.jpg' height='90'> <img src='G_5.jpg' height='90'>","null","Animation1",""
"","","","","","html-keyboard-response","116","453426","0.0-69.0","52","1","2025-01-29 23:05:34","af8d355d56820e421d246a7037deb6e6","108.234.90.222","Mozilla/5.0 (Windows NT 10.0; Win64; x64; rv:134.0) Gecko/20100101 Firefox/134.0","","Firefox","134.0","Windows","10.0","https://app.prolific.com/","en-US,en;q=0.5","5a8cba1a8fe2dc00010643f0","67949641171f97c04e14fb34","679ab429ebcf47617fe24215","","null","<img id='swapped'   src='G_1.jpg' height='90'> <img id='swapped'   src='G_2.jpg' height='90'> <img    src='G_7.jpg' height='90'> <img    src='G_3.jpg' height='90'> <img src='G_6.jpg' height='90'> <img src='G_4.jpg' height='90'> <img src='G_8.jpg' height='90'> <img src='G_5.jpg' height='90'>","null","Animation1",""
"","","","","","html-keyboard-response","117","453736","0.0-70.0","52","1","2025-01-29 23:05:34","af8d355d56820e421d246a7037deb6e6","108.234.90.222","Mozilla/5.0 (Windows NT 10.0; Win64; x64; rv:134.0) Gecko/20100101 Firefox/134.0","","Firefox","134.0","Windows","10.0","https://app.prolific.com/","en-US,en;q=0.5","5a8cba1a8fe2dc00010643f0","67949641171f97c04e14fb34","679ab429ebcf47617fe24215","","null","<img    src='G_1.jpg' height='90'> <img    src='G_2.jpg' height='90'> <img    src='G_7.jpg' height='90'> <img    src='G_3.jpg' height='90'> <img src='G_6.jpg' height='90'> <img src='G_4.jpg' height='90'> <img src='G_8.jpg' height='90'> <img src='G_5.jpg' height='90'>","null","Animation1",""
"","","","","","html-keyboard-response","118","454248","0.0-71.0","52","1","2025-01-29 23:05:34","af8d355d56820e421d246a7037deb6e6","108.234.90.222","Mozilla/5.0 (Windows NT 10.0; Win64; x64; rv:134.0) Gecko/20100101 Firefox/134.0","","Firefox","134.0","Windows","10.0","https://app.prolific.com/","en-US,en;q=0.5","5a8cba1a8fe2dc00010643f0","67949641171f97c04e14fb34","679ab429ebcf47617fe24215","","null","<img    src='G_1.jpg' height='90'> <img    src='G_2.jpg' height='90'> <img    src='G_7.jpg' height='90'> <img id='selected'    src='G_3.jpg' height='90'> <img src='G_6.jpg' height='90'> <img src='G_4.jpg' height='90'> <img src='G_8.jpg' height='90'> <img src='G_5.jpg' height='90'>","null","Animation1",""
"","","","","","html-keyboard-response","119","454762","0.0-72.0","52","1","2025-01-29 23:05:34","af8d355d56820e421d246a7037deb6e6","108.234.90.222","Mozilla/5.0 (Windows NT 10.0; Win64; x64; rv:134.0) Gecko/20100101 Firefox/134.0","","Firefox","134.0","Windows","10.0","https://app.prolific.com/","en-US,en;q=0.5","5a8cba1a8fe2dc00010643f0","67949641171f97c04e14fb34","679ab429ebcf47617fe24215","","null","<img    src='G_1.jpg' height='90'> <img    src='G_2.jpg' height='90'> <img    src='G_7.jpg' height='90'> <img id='selected'    src='G_3.jpg' height='90'> <img id='selected' src='G_6.jpg' height='90'> <img src='G_4.jpg' height='90'> <img src='G_8.jpg' height='90'> <img src='G_5.jpg' height='90'>","null","Animation1",""
"","","","","","html-keyboard-response","120","455274","0.0-73.0","52","1","2025-01-29 23:05:34","af8d355d56820e421d246a7037deb6e6","108.234.90.222","Mozilla/5.0 (Windows NT 10.0; Win64; x64; rv:134.0) Gecko/20100101 Firefox/134.0","","Firefox","134.0","Windows","10.0","https://app.prolific.com/","en-US,en;q=0.5","5a8cba1a8fe2dc00010643f0","67949641171f97c04e14fb34","679ab429ebcf47617fe24215","","null","<img    src='G_1.jpg' height='90'> <img    src='G_2.jpg' height='90'> <img    src='G_7.jpg' height='90'> <img id='swapped' src='G_6.jpg' height='90'> <img id='swapped'    src='G_3.jpg' height='90'> <img src='G_4.jpg' height='90'> <img src='G_8.jpg' height='90'> <img src='G_5.jpg' height='90'>","null","Animation1",""
"","","","","","html-keyboard-response","121","455588","0.0-74.0","52","1","2025-01-29 23:05:34","af8d355d56820e421d246a7037deb6e6","108.234.90.222","Mozilla/5.0 (Windows NT 10.0; Win64; x64; rv:134.0) Gecko/20100101 Firefox/134.0","","Firefox","134.0","Windows","10.0","https://app.prolific.com/","en-US,en;q=0.5","5a8cba1a8fe2dc00010643f0","67949641171f97c04e14fb34","679ab429ebcf47617fe24215","","null","<img    src='G_1.jpg' height='90'> <img    src='G_2.jpg' height='90'> <img    src='G_7.jpg' height='90'> <img  src='G_6.jpg' height='90'> <img     src='G_3.jpg' height='90'> <img src='G_4.jpg' height='90'> <img src='G_8.jpg' height='90'> <img src='G_5.jpg' height='90'>","null","Animation1",""
"","","","","","html-keyboard-response","122","456097","0.0-75.0","52","1","2025-01-29 23:05:34","af8d355d56820e421d246a7037deb6e6","108.234.90.222","Mozilla/5.0 (Windows NT 10.0; Win64; x64; rv:134.0) Gecko/20100101 Firefox/134.0","","Firefox","134.0","Windows","10.0","https://app.prolific.com/","en-US,en;q=0.5","5a8cba1a8fe2dc00010643f0","67949641171f97c04e14fb34","679ab429ebcf47617fe24215","","null","<img    src='G_1.jpg' height='90'> <img    src='G_2.jpg' height='90'> <img id='selected'    src='G_7.jpg' height='90'> <img  src='G_6.jpg' height='90'> <img     src='G_3.jpg' height='90'> <img src='G_4.jpg' height='90'> <img src='G_8.jpg' height='90'> <img src='G_5.jpg' height='90'>","null","Animation1",""
"","","","","","html-keyboard-response","123","456608","0.0-76.0","52","1","2025-01-29 23:05:34","af8d355d56820e421d246a7037deb6e6","108.234.90.222","Mozilla/5.0 (Windows NT 10.0; Win64; x64; rv:134.0) Gecko/20100101 Firefox/134.0","","Firefox","134.0","Windows","10.0","https://app.prolific.com/","en-US,en;q=0.5","5a8cba1a8fe2dc00010643f0","67949641171f97c04e14fb34","679ab429ebcf47617fe24215","","null","<img    src='G_1.jpg' height='90'> <img    src='G_2.jpg' height='90'> <img id='selected'    src='G_7.jpg' height='90'> <img id='selected'  src='G_6.jpg' height='90'> <img     src='G_3.jpg' height='90'> <img src='G_4.jpg' height='90'> <img src='G_8.jpg' height='90'> <img src='G_5.jpg' height='90'>","null","Animation1",""
"","","","","","html-keyboard-response","124","457122","0.0-77.0","52","1","2025-01-29 23:05:34","af8d355d56820e421d246a7037deb6e6","108.234.90.222","Mozilla/5.0 (Windows NT 10.0; Win64; x64; rv:134.0) Gecko/20100101 Firefox/134.0","","Firefox","134.0","Windows","10.0","https://app.prolific.com/","en-US,en;q=0.5","5a8cba1a8fe2dc00010643f0","67949641171f97c04e14fb34","679ab429ebcf47617fe24215","","null","<img    src='G_1.jpg' height='90'> <img    src='G_2.jpg' height='90'> <img id='swapped'  src='G_6.jpg' height='90'> <img id='swapped'    src='G_7.jpg' height='90'> <img     src='G_3.jpg' height='90'> <img src='G_4.jpg' height='90'> <img src='G_8.jpg' height='90'> <img src='G_5.jpg' height='90'>","null","Animation1",""
"","","","","","html-keyboard-response","125","457435","0.0-78.0","52","1","2025-01-29 23:05:34","af8d355d56820e421d246a7037deb6e6","108.234.90.222","Mozilla/5.0 (Windows NT 10.0; Win64; x64; rv:134.0) Gecko/20100101 Firefox/134.0","","Firefox","134.0","Windows","10.0","https://app.prolific.com/","en-US,en;q=0.5","5a8cba1a8fe2dc00010643f0","67949641171f97c04e14fb34","679ab429ebcf47617fe24215","","null","<img    src='G_1.jpg' height='90'> <img    src='G_2.jpg' height='90'> <img   src='G_6.jpg' height='90'> <img     src='G_7.jpg' height='90'> <img     src='G_3.jpg' height='90'> <img src='G_4.jpg' height='90'> <img src='G_8.jpg' height='90'> <img src='G_5.jpg' height='90'>","null","Animation1",""
"","","","","","html-keyboard-response","126","457949","0.0-79.0","52","1","2025-01-29 23:05:34","af8d355d56820e421d246a7037deb6e6","108.234.90.222","Mozilla/5.0 (Windows NT 10.0; Win64; x64; rv:134.0) Gecko/20100101 Firefox/134.0","","Firefox","134.0","Windows","10.0","https://app.prolific.com/","en-US,en;q=0.5","5a8cba1a8fe2dc00010643f0","67949641171f97c04e14fb34","679ab429ebcf47617fe24215","","null","<img    src='G_1.jpg' height='90'> <img id='selected'    src='G_2.jpg' height='90'> <img   src='G_6.jpg' height='90'> <img     src='G_7.jpg' height='90'> <img     src='G_3.jpg' height='90'> <img src='G_4.jpg' height='90'> <img src='G_8.jpg' height='90'> <img src='G_5.jpg' height='90'>","null","Animation1",""
"","","","","","html-keyboard-response","127","458463","0.0-80.0","52","1","2025-01-29 23:05:34","af8d355d56820e421d246a7037deb6e6","108.234.90.222","Mozilla/5.0 (Windows NT 10.0; Win64; x64; rv:134.0) Gecko/20100101 Firefox/134.0","","Firefox","134.0","Windows","10.0","https://app.prolific.com/","en-US,en;q=0.5","5a8cba1a8fe2dc00010643f0","67949641171f97c04e14fb34","679ab429ebcf47617fe24215","","null","<img    src='G_1.jpg' height='90'> <img id='selected'    src='G_2.jpg' height='90'> <img id='selected'   src='G_6.jpg' height='90'> <img     src='G_7.jpg' height='90'> <img     src='G_3.jpg' height='90'> <img src='G_4.jpg' height='90'> <img src='G_8.jpg' height='90'> <img src='G_5.jpg' height='90'>","null","Animation1",""
"","","","","","html-keyboard-response","128","458974","0.0-81.0","52","1","2025-01-29 23:05:34","af8d355d56820e421d246a7037deb6e6","108.234.90.222","Mozilla/5.0 (Windows NT 10.0; Win64; x64; rv:134.0) Gecko/20100101 Firefox/134.0","","Firefox","134.0","Windows","10.0","https://app.prolific.com/","en-US,en;q=0.5","5a8cba1a8fe2dc00010643f0","67949641171f97c04e14fb34","679ab429ebcf47617fe24215","","null","<img    src='G_1.jpg' height='90'> <img id='swapped'   src='G_6.jpg' height='90'> <img id='swapped'    src='G_2.jpg' height='90'> <img     src='G_7.jpg' height='90'> <img     src='G_3.jpg' height='90'> <img src='G_4.jpg' height='90'> <img src='G_8.jpg' height='90'> <img src='G_5.jpg' height='90'>","null","Animation1",""
"","","","","","html-keyboard-response","129","459284","0.0-82.0","52","1","2025-01-29 23:05:34","af8d355d56820e421d246a7037deb6e6","108.234.90.222","Mozilla/5.0 (Windows NT 10.0; Win64; x64; rv:134.0) Gecko/20100101 Firefox/134.0","","Firefox","134.0","Windows","10.0","https://app.prolific.com/","en-US,en;q=0.5","5a8cba1a8fe2dc00010643f0","67949641171f97c04e14fb34","679ab429ebcf47617fe24215","","null","<img    src='G_1.jpg' height='90'> <img    src='G_6.jpg' height='90'> <img     src='G_2.jpg' height='90'> <img     src='G_7.jpg' height='90'> <img     src='G_3.jpg' height='90'> <img src='G_4.jpg' height='90'> <img src='G_8.jpg' height='90'> <img src='G_5.jpg' height='90'>","null","Animation1",""
"","","","","","html-keyboard-response","130","459798","0.0-83.0","52","1","2025-01-29 23:05:34","af8d355d56820e421d246a7037deb6e6","108.234.90.222","Mozilla/5.0 (Windows NT 10.0; Win64; x64; rv:134.0) Gecko/20100101 Firefox/134.0","","Firefox","134.0","Windows","10.0","https://app.prolific.com/","en-US,en;q=0.5","5a8cba1a8fe2dc00010643f0","67949641171f97c04e14fb34","679ab429ebcf47617fe24215","","null","<img id='selected'    src='G_1.jpg' height='90'> <img    src='G_6.jpg' height='90'> <img     src='G_2.jpg' height='90'> <img     src='G_7.jpg' height='90'> <img     src='G_3.jpg' height='90'> <img src='G_4.jpg' height='90'> <img src='G_8.jpg' height='90'> <img src='G_5.jpg' height='90'>","null","Animation1",""
"","","","","","html-keyboard-response","131","460311","0.0-84.0","52","1","2025-01-29 23:05:34","af8d355d56820e421d246a7037deb6e6","108.234.90.222","Mozilla/5.0 (Windows NT 10.0; Win64; x64; rv:134.0) Gecko/20100101 Firefox/134.0","","Firefox","134.0","Windows","10.0","https://app.prolific.com/","en-US,en;q=0.5","5a8cba1a8fe2dc00010643f0","67949641171f97c04e14fb34","679ab429ebcf47617fe24215","","null","<img id='selected'    src='G_1.jpg' height='90'> <img id='selected'    src='G_6.jpg' height='90'> <img     src='G_2.jpg' height='90'> <img     src='G_7.jpg' height='90'> <img     src='G_3.jpg' height='90'> <img src='G_4.jpg' height='90'> <img src='G_8.jpg' height='90'> <img src='G_5.jpg' height='90'>","null","Animation1",""
"","","","","","html-keyboard-response","132","460822","0.0-85.0","52","1","2025-01-29 23:05:34","af8d355d56820e421d246a7037deb6e6","108.234.90.222","Mozilla/5.0 (Windows NT 10.0; Win64; x64; rv:134.0) Gecko/20100101 Firefox/134.0","","Firefox","134.0","Windows","10.0","https://app.prolific.com/","en-US,en;q=0.5","5a8cba1a8fe2dc00010643f0","67949641171f97c04e14fb34","679ab429ebcf47617fe24215","","null","<img id='selected'    src='G_1.jpg' height='90'> <img id='selected'    src='G_6.jpg' height='90'> <img     src='G_2.jpg' height='90'> <img     src='G_7.jpg' height='90'> <img     src='G_3.jpg' height='90'> <img src='G_4.jpg' height='90'> <img src='G_8.jpg' height='90'> <img src='G_5.jpg' height='90'>","null","Animation1",""
"","","","","","html-keyboard-response","133","461133","0.0-86.0","52","1","2025-01-29 23:05:34","af8d355d56820e421d246a7037deb6e6","108.234.90.222","Mozilla/5.0 (Windows NT 10.0; Win64; x64; rv:134.0) Gecko/20100101 Firefox/134.0","","Firefox","134.0","Windows","10.0","https://app.prolific.com/","en-US,en;q=0.5","5a8cba1a8fe2dc00010643f0","67949641171f97c04e14fb34","679ab429ebcf47617fe24215","","null","<img     src='G_1.jpg' height='90'> <img     src='G_6.jpg' height='90'> <img     src='G_2.jpg' height='90'> <img     src='G_7.jpg' height='90'> <img     src='G_3.jpg' height='90'> <img src='G_4.jpg' height='90'> <img src='G_8.jpg' height='90'> <img src='G_5.jpg' height='90'>","null","Animation1",""
"","","","","","html-keyboard-response","134","461646","0.0-87.0","52","1","2025-01-29 23:05:34","af8d355d56820e421d246a7037deb6e6","108.234.90.222","Mozilla/5.0 (Windows NT 10.0; Win64; x64; rv:134.0) Gecko/20100101 Firefox/134.0","","Firefox","134.0","Windows","10.0","https://app.prolific.com/","en-US,en;q=0.5","5a8cba1a8fe2dc00010643f0","67949641171f97c04e14fb34","679ab429ebcf47617fe24215","","null","<img     src='G_1.jpg' height='90'> <img     src='G_6.jpg' height='90'> <img     src='G_2.jpg' height='90'> <img     src='G_7.jpg' height='90'> <img id='selected'     src='G_3.jpg' height='90'> <img src='G_4.jpg' height='90'> <img src='G_8.jpg' height='90'> <img src='G_5.jpg' height='90'>","null","Animation1",""
"","","","","","html-keyboard-response","135","462158","0.0-88.0","52","1","2025-01-29 23:05:34","af8d355d56820e421d246a7037deb6e6","108.234.90.222","Mozilla/5.0 (Windows NT 10.0; Win64; x64; rv:134.0) Gecko/20100101 Firefox/134.0","","Firefox","134.0","Windows","10.0","https://app.prolific.com/","en-US,en;q=0.5","5a8cba1a8fe2dc00010643f0","67949641171f97c04e14fb34","679ab429ebcf47617fe24215","","null","<img     src='G_1.jpg' height='90'> <img     src='G_6.jpg' height='90'> <img     src='G_2.jpg' height='90'> <img     src='G_7.jpg' height='90'> <img id='selected'     src='G_3.jpg' height='90'> <img id='selected' src='G_4.jpg' height='90'> <img src='G_8.jpg' height='90'> <img src='G_5.jpg' height='90'>","null","Animation1",""
"","","","","","html-keyboard-response","136","462670","0.0-89.0","52","1","2025-01-29 23:05:34","af8d355d56820e421d246a7037deb6e6","108.234.90.222","Mozilla/5.0 (Windows NT 10.0; Win64; x64; rv:134.0) Gecko/20100101 Firefox/134.0","","Firefox","134.0","Windows","10.0","https://app.prolific.com/","en-US,en;q=0.5","5a8cba1a8fe2dc00010643f0","67949641171f97c04e14fb34","679ab429ebcf47617fe24215","","null","<img     src='G_1.jpg' height='90'> <img     src='G_6.jpg' height='90'> <img     src='G_2.jpg' height='90'> <img     src='G_7.jpg' height='90'> <img id='swapped' src='G_4.jpg' height='90'> <img id='swapped'     src='G_3.jpg' height='90'> <img src='G_8.jpg' height='90'> <img src='G_5.jpg' height='90'>","null","Animation1",""
"","","","","","html-keyboard-response","137","462981","0.0-90.0","52","1","2025-01-29 23:05:34","af8d355d56820e421d246a7037deb6e6","108.234.90.222","Mozilla/5.0 (Windows NT 10.0; Win64; x64; rv:134.0) Gecko/20100101 Firefox/134.0","","Firefox","134.0","Windows","10.0","https://app.prolific.com/","en-US,en;q=0.5","5a8cba1a8fe2dc00010643f0","67949641171f97c04e14fb34","679ab429ebcf47617fe24215","","null","<img     src='G_1.jpg' height='90'> <img     src='G_6.jpg' height='90'> <img     src='G_2.jpg' height='90'> <img     src='G_7.jpg' height='90'> <img  src='G_4.jpg' height='90'> <img      src='G_3.jpg' height='90'> <img src='G_8.jpg' height='90'> <img src='G_5.jpg' height='90'>","null","Animation1",""
"","","","","","html-keyboard-response","138","463496","0.0-91.0","52","1","2025-01-29 23:05:34","af8d355d56820e421d246a7037deb6e6","108.234.90.222","Mozilla/5.0 (Windows NT 10.0; Win64; x64; rv:134.0) Gecko/20100101 Firefox/134.0","","Firefox","134.0","Windows","10.0","https://app.prolific.com/","en-US,en;q=0.5","5a8cba1a8fe2dc00010643f0","67949641171f97c04e14fb34","679ab429ebcf47617fe24215","","null","<img     src='G_1.jpg' height='90'> <img     src='G_6.jpg' height='90'> <img     src='G_2.jpg' height='90'> <img id='selected'     src='G_7.jpg' height='90'> <img  src='G_4.jpg' height='90'> <img      src='G_3.jpg' height='90'> <img src='G_8.jpg' height='90'> <img src='G_5.jpg' height='90'>","null","Animation1",""
"","","","","","html-keyboard-response","139","464007","0.0-92.0","52","1","2025-01-29 23:05:34","af8d355d56820e421d246a7037deb6e6","108.234.90.222","Mozilla/5.0 (Windows NT 10.0; Win64; x64; rv:134.0) Gecko/20100101 Firefox/134.0","","Firefox","134.0","Windows","10.0","https://app.prolific.com/","en-US,en;q=0.5","5a8cba1a8fe2dc00010643f0","67949641171f97c04e14fb34","679ab429ebcf47617fe24215","","null","<img     src='G_1.jpg' height='90'> <img     src='G_6.jpg' height='90'> <img     src='G_2.jpg' height='90'> <img id='selected'     src='G_7.jpg' height='90'> <img id='selected'  src='G_4.jpg' height='90'> <img      src='G_3.jpg' height='90'> <img src='G_8.jpg' height='90'> <img src='G_5.jpg' height='90'>","null","Animation1",""
"","","","","","html-keyboard-response","140","464519","0.0-93.0","52","1","2025-01-29 23:05:34","af8d355d56820e421d246a7037deb6e6","108.234.90.222","Mozilla/5.0 (Windows NT 10.0; Win64; x64; rv:134.0) Gecko/20100101 Firefox/134.0","","Firefox","134.0","Windows","10.0","https://app.prolific.com/","en-US,en;q=0.5","5a8cba1a8fe2dc00010643f0","67949641171f97c04e14fb34","679ab429ebcf47617fe24215","","null","<img     src='G_1.jpg' height='90'> <img     src='G_6.jpg' height='90'> <img     src='G_2.jpg' height='90'> <img id='selected'     src='G_7.jpg' height='90'> <img id='selected'  src='G_4.jpg' height='90'> <img      src='G_3.jpg' height='90'> <img src='G_8.jpg' height='90'> <img src='G_5.jpg' height='90'>","null","Animation1",""
"","","","","","html-keyboard-response","141","464832","0.0-94.0","52","1","2025-01-29 23:05:34","af8d355d56820e421d246a7037deb6e6","108.234.90.222","Mozilla/5.0 (Windows NT 10.0; Win64; x64; rv:134.0) Gecko/20100101 Firefox/134.0","","Firefox","134.0","Windows","10.0","https://app.prolific.com/","en-US,en;q=0.5","5a8cba1a8fe2dc00010643f0","67949641171f97c04e14fb34","679ab429ebcf47617fe24215","","null","<img     src='G_1.jpg' height='90'> <img     src='G_6.jpg' height='90'> <img     src='G_2.jpg' height='90'> <img      src='G_7.jpg' height='90'> <img   src='G_4.jpg' height='90'> <img      src='G_3.jpg' height='90'> <img src='G_8.jpg' height='90'> <img src='G_5.jpg' height='90'>","null","Animation1",""
"","","","","","html-keyboard-response","142","465347","0.0-95.0","52","1","2025-01-29 23:05:34","af8d355d56820e421d246a7037deb6e6","108.234.90.222","Mozilla/5.0 (Windows NT 10.0; Win64; x64; rv:134.0) Gecko/20100101 Firefox/134.0","","Firefox","134.0","Windows","10.0","https://app.prolific.com/","en-US,en;q=0.5","5a8cba1a8fe2dc00010643f0","67949641171f97c04e14fb34","679ab429ebcf47617fe24215","","null","<img     src='G_1.jpg' height='90'> <img     src='G_6.jpg' height='90'> <img     src='G_2.jpg' height='90'> <img      src='G_7.jpg' height='90'> <img   src='G_4.jpg' height='90'> <img id='selected'      src='G_3.jpg' height='90'> <img src='G_8.jpg' height='90'> <img src='G_5.jpg' height='90'>","null","Animation1",""
"","","","","","html-keyboard-response","143","465859","0.0-96.0","52","1","2025-01-29 23:05:34","af8d355d56820e421d246a7037deb6e6","108.234.90.222","Mozilla/5.0 (Windows NT 10.0; Win64; x64; rv:134.0) Gecko/20100101 Firefox/134.0","","Firefox","134.0","Windows","10.0","https://app.prolific.com/","en-US,en;q=0.5","5a8cba1a8fe2dc00010643f0","67949641171f97c04e14fb34","679ab429ebcf47617fe24215","","null","<img     src='G_1.jpg' height='90'> <img     src='G_6.jpg' height='90'> <img     src='G_2.jpg' height='90'> <img      src='G_7.jpg' height='90'> <img   src='G_4.jpg' height='90'> <img id='selected'      src='G_3.jpg' height='90'> <img id='selected' src='G_8.jpg' height='90'> <img src='G_5.jpg' height='90'>","null","Animation1",""
"","","","","","html-keyboard-response","144","466373","0.0-97.0","52","1","2025-01-29 23:05:34","af8d355d56820e421d246a7037deb6e6","108.234.90.222","Mozilla/5.0 (Windows NT 10.0; Win64; x64; rv:134.0) Gecko/20100101 Firefox/134.0","","Firefox","134.0","Windows","10.0","https://app.prolific.com/","en-US,en;q=0.5","5a8cba1a8fe2dc00010643f0","67949641171f97c04e14fb34","679ab429ebcf47617fe24215","","null","<img     src='G_1.jpg' height='90'> <img     src='G_6.jpg' height='90'> <img     src='G_2.jpg' height='90'> <img      src='G_7.jpg' height='90'> <img   src='G_4.jpg' height='90'> <img id='selected'      src='G_3.jpg' height='90'> <img id='selected' src='G_8.jpg' height='90'> <img src='G_5.jpg' height='90'>","null","Animation1",""
"","","","","","html-keyboard-response","145","466684","0.0-98.0","52","1","2025-01-29 23:05:34","af8d355d56820e421d246a7037deb6e6","108.234.90.222","Mozilla/5.0 (Windows NT 10.0; Win64; x64; rv:134.0) Gecko/20100101 Firefox/134.0","","Firefox","134.0","Windows","10.0","https://app.prolific.com/","en-US,en;q=0.5","5a8cba1a8fe2dc00010643f0","67949641171f97c04e14fb34","679ab429ebcf47617fe24215","","null","<img     src='G_1.jpg' height='90'> <img     src='G_6.jpg' height='90'> <img     src='G_2.jpg' height='90'> <img      src='G_7.jpg' height='90'> <img   src='G_4.jpg' height='90'> <img       src='G_3.jpg' height='90'> <img  src='G_8.jpg' height='90'> <img src='G_5.jpg' height='90'>","null","Animation1",""
"","","","","","html-keyboard-response","146","467200","0.0-99.0","52","1","2025-01-29 23:05:34","af8d355d56820e421d246a7037deb6e6","108.234.90.222","Mozilla/5.0 (Windows NT 10.0; Win64; x64; rv:134.0) Gecko/20100101 Firefox/134.0","","Firefox","134.0","Windows","10.0","https://app.prolific.com/","en-US,en;q=0.5","5a8cba1a8fe2dc00010643f0","67949641171f97c04e14fb34","679ab429ebcf47617fe24215","","null","<img     src='G_1.jpg' height='90'> <img     src='G_6.jpg' height='90'> <img     src='G_2.jpg' height='90'> <img      src='G_7.jpg' height='90'> <img   src='G_4.jpg' height='90'> <img       src='G_3.jpg' height='90'> <img id='selected'  src='G_8.jpg' height='90'> <img src='G_5.jpg' height='90'>","null","Animation1",""
"","","","","","html-keyboard-response","147","467711","0.0-100.0","52","1","2025-01-29 23:05:34","af8d355d56820e421d246a7037deb6e6","108.234.90.222","Mozilla/5.0 (Windows NT 10.0; Win64; x64; rv:134.0) Gecko/20100101 Firefox/134.0","","Firefox","134.0","Windows","10.0","https://app.prolific.com/","en-US,en;q=0.5","5a8cba1a8fe2dc00010643f0","67949641171f97c04e14fb34","679ab429ebcf47617fe24215","","null","<img     src='G_1.jpg' height='90'> <img     src='G_6.jpg' height='90'> <img     src='G_2.jpg' height='90'> <img      src='G_7.jpg' height='90'> <img   src='G_4.jpg' height='90'> <img       src='G_3.jpg' height='90'> <img id='selected'  src='G_8.jpg' height='90'> <img id='selected' src='G_5.jpg' height='90'>","null","Animation1",""
"","","","","","html-keyboard-response","148","468224","0.0-101.0","52","1","2025-01-29 23:05:34","af8d355d56820e421d246a7037deb6e6","108.234.90.222","Mozilla/5.0 (Windows NT 10.0; Win64; x64; rv:134.0) Gecko/20100101 Firefox/134.0","","Firefox","134.0","Windows","10.0","https://app.prolific.com/","en-US,en;q=0.5","5a8cba1a8fe2dc00010643f0","67949641171f97c04e14fb34","679ab429ebcf47617fe24215","","null","<img     src='G_1.jpg' height='90'> <img     src='G_6.jpg' height='90'> <img     src='G_2.jpg' height='90'> <img      src='G_7.jpg' height='90'> <img   src='G_4.jpg' height='90'> <img       src='G_3.jpg' height='90'> <img id='swapped' src='G_5.jpg' height='90'> <img id='swapped'  src='G_8.jpg' height='90'>","null","Animation1",""
"","","","","","html-keyboard-response","149","468535","0.0-102.0","52","1","2025-01-29 23:05:34","af8d355d56820e421d246a7037deb6e6","108.234.90.222","Mozilla/5.0 (Windows NT 10.0; Win64; x64; rv:134.0) Gecko/20100101 Firefox/134.0","","Firefox","134.0","Windows","10.0","https://app.prolific.com/","en-US,en;q=0.5","5a8cba1a8fe2dc00010643f0","67949641171f97c04e14fb34","679ab429ebcf47617fe24215","","null","<img     src='G_1.jpg' height='90'> <img     src='G_6.jpg' height='90'> <img     src='G_2.jpg' height='90'> <img      src='G_7.jpg' height='90'> <img   src='G_4.jpg' height='90'> <img       src='G_3.jpg' height='90'> <img  src='G_5.jpg' height='90'> <img   src='G_8.jpg' height='90'>","null","Animation1",""
"","","","","","html-keyboard-response","150","469050","0.0-103.0","52","1","2025-01-29 23:05:34","af8d355d56820e421d246a7037deb6e6","108.234.90.222","Mozilla/5.0 (Windows NT 10.0; Win64; x64; rv:134.0) Gecko/20100101 Firefox/134.0","","Firefox","134.0","Windows","10.0","https://app.prolific.com/","en-US,en;q=0.5","5a8cba1a8fe2dc00010643f0","67949641171f97c04e14fb34","679ab429ebcf47617fe24215","","null","<img     src='G_1.jpg' height='90'> <img     src='G_6.jpg' height='90'> <img     src='G_2.jpg' height='90'> <img      src='G_7.jpg' height='90'> <img   src='G_4.jpg' height='90'> <img id='selected'       src='G_3.jpg' height='90'> <img  src='G_5.jpg' height='90'> <img   src='G_8.jpg' height='90'>","null","Animation1",""
"","","","","","html-keyboard-response","151","469563","0.0-104.0","52","1","2025-01-29 23:05:34","af8d355d56820e421d246a7037deb6e6","108.234.90.222","Mozilla/5.0 (Windows NT 10.0; Win64; x64; rv:134.0) Gecko/20100101 Firefox/134.0","","Firefox","134.0","Windows","10.0","https://app.prolific.com/","en-US,en;q=0.5","5a8cba1a8fe2dc00010643f0","67949641171f97c04e14fb34","679ab429ebcf47617fe24215","","null","<img     src='G_1.jpg' height='90'> <img     src='G_6.jpg' height='90'> <img     src='G_2.jpg' height='90'> <img      src='G_7.jpg' height='90'> <img   src='G_4.jpg' height='90'> <img id='selected'       src='G_3.jpg' height='90'> <img id='selected'  src='G_5.jpg' height='90'> <img   src='G_8.jpg' height='90'>","null","Animation1",""
"","","","","","html-keyboard-response","152","470078","0.0-105.0","52","1","2025-01-29 23:05:34","af8d355d56820e421d246a7037deb6e6","108.234.90.222","Mozilla/5.0 (Windows NT 10.0; Win64; x64; rv:134.0) Gecko/20100101 Firefox/134.0","","Firefox","134.0","Windows","10.0","https://app.prolific.com/","en-US,en;q=0.5","5a8cba1a8fe2dc00010643f0","67949641171f97c04e14fb34","679ab429ebcf47617fe24215","","null","<img     src='G_1.jpg' height='90'> <img     src='G_6.jpg' height='90'> <img     src='G_2.jpg' height='90'> <img      src='G_7.jpg' height='90'> <img   src='G_4.jpg' height='90'> <img id='selected'       src='G_3.jpg' height='90'> <img id='selected'  src='G_5.jpg' height='90'> <img   src='G_8.jpg' height='90'>","null","Animation1",""
"","","","","","html-keyboard-response","153","470388","0.0-106.0","52","1","2025-01-29 23:05:34","af8d355d56820e421d246a7037deb6e6","108.234.90.222","Mozilla/5.0 (Windows NT 10.0; Win64; x64; rv:134.0) Gecko/20100101 Firefox/134.0","","Firefox","134.0","Windows","10.0","https://app.prolific.com/","en-US,en;q=0.5","5a8cba1a8fe2dc00010643f0","67949641171f97c04e14fb34","679ab429ebcf47617fe24215","","null","<img     src='G_1.jpg' height='90'> <img     src='G_6.jpg' height='90'> <img     src='G_2.jpg' height='90'> <img      src='G_7.jpg' height='90'> <img   src='G_4.jpg' height='90'> <img        src='G_3.jpg' height='90'> <img   src='G_5.jpg' height='90'> <img   src='G_8.jpg' height='90'>","null","Animation1",""
"","","","","","html-keyboard-response","154","476170","0.0-107.0","52","1","2025-01-29 23:05:34","af8d355d56820e421d246a7037deb6e6","108.234.90.222","Mozilla/5.0 (Windows NT 10.0; Win64; x64; rv:134.0) Gecko/20100101 Firefox/134.0","","Firefox","134.0","Windows","10.0","https://app.prolific.com/","en-US,en;q=0.5","5a8cba1a8fe2dc00010643f0","67949641171f97c04e14fb34","679ab429ebcf47617fe24215","","5773","[""Did you notice any patterns? <br><br>Press Enter to watch that example again and follow the steps of Omgne Sort.""]","enter","",""
"","","","","","html-button-response","155","476576","0.0-108.0","52","1","2025-01-29 23:05:34","af8d355d56820e421d246a7037deb6e6","108.234.90.222","Mozilla/5.0 (Windows NT 10.0; Win64; x64; rv:134.0) Gecko/20100101 Firefox/134.0","","Firefox","134.0","Windows","10.0","https://app.prolific.com/","en-US,en;q=0.5","5a8cba1a8fe2dc00010643f0","67949641171f97c04e14fb34","679ab429ebcf47617fe24215","","null","<img id='selected' src='G_7.jpg' height='90'> <img src='G_3.jpg' height='90'> <img src='G_2.jpg' height='90'> <img src='G_1.jpg' height='90'> <img src='G_6.jpg' height='90'> <img src='G_4.jpg' height='90'> <img src='G_8.jpg' height='90'> <img src='G_5.jpg' height='90'>","null","Learning example 1",""
"","","","","","html-button-response","156","476886","0.0-109.0","52","1","2025-01-29 23:05:34","af8d355d56820e421d246a7037deb6e6","108.234.90.222","Mozilla/5.0 (Windows NT 10.0; Win64; x64; rv:134.0) Gecko/20100101 Firefox/134.0","","Firefox","134.0","Windows","10.0","https://app.prolific.com/","en-US,en;q=0.5","5a8cba1a8fe2dc00010643f0","67949641171f97c04e14fb34","679ab429ebcf47617fe24215","","null","<img id='selected' src='G_7.jpg' height='90'> <img id='selected' src='G_3.jpg' height='90'> <img src='G_2.jpg' height='90'> <img src='G_1.jpg' height='90'> <img src='G_6.jpg' height='90'> <img src='G_4.jpg' height='90'> <img src='G_8.jpg' height='90'> <img src='G_5.jpg' height='90'>","null","Learning example 1",""
"","","","","","html-button-response","157","477193","0.0-110.0","52","1","2025-01-29 23:05:34","af8d355d56820e421d246a7037deb6e6","108.234.90.222","Mozilla/5.0 (Windows NT 10.0; Win64; x64; rv:134.0) Gecko/20100101 Firefox/134.0","","Firefox","134.0","Windows","10.0","https://app.prolific.com/","en-US,en;q=0.5","5a8cba1a8fe2dc00010643f0","67949641171f97c04e14fb34","679ab429ebcf47617fe24215","","null","<img id='selected' src='G_7.jpg' height='90'> <img id='selected' src='G_3.jpg' height='90'> <img src='G_2.jpg' height='90'> <img src='G_1.jpg' height='90'> <img src='G_6.jpg' height='90'> <img src='G_4.jpg' height='90'> <img src='G_8.jpg' height='90'> <img src='G_5.jpg' height='90'>","null","Learning example 1",""
"","","","","","html-button-response","158","478498","0.0-111.0-0.0-0.0","52","1","2025-01-29 23:05:34","af8d355d56820e421d246a7037deb6e6","108.234.90.222","Mozilla/5.0 (Windows NT 10.0; Win64; x64; rv:134.0) Gecko/20100101 Firefox/134.0","","Firefox","134.0","Windows","10.0","https://app.prolific.com/","en-US,en;q=0.5","5a8cba1a8fe2dc00010643f0","67949641171f97c04e14fb34","679ab429ebcf47617fe24215","","1302","<img id='selected' src='G_7.jpg' height='90'> <img id='selected' src='G_3.jpg' height='90'> <img src='G_2.jpg' height='90'> <img src='G_1.jpg' height='90'> <img src='G_6.jpg' height='90'> <img src='G_4.jpg' height='90'> <img src='G_8.jpg' height='90'> <img src='G_5.jpg' height='90'>","0","Learning example 1",""
"","","","","","html-button-response","159","479042","0.0-111.1-0.1-0.1","52","1","2025-01-29 23:05:34","af8d355d56820e421d246a7037deb6e6","108.234.90.222","Mozilla/5.0 (Windows NT 10.0; Win64; x64; rv:134.0) Gecko/20100101 Firefox/134.0","","Firefox","134.0","Windows","10.0","https://app.prolific.com/","en-US,en;q=0.5","5a8cba1a8fe2dc00010643f0","67949641171f97c04e14fb34","679ab429ebcf47617fe24215","","541","<img id='selected' src='G_7.jpg' height='90'> <img id='selected' src='G_3.jpg' height='90'> <img src='G_2.jpg' height='90'> <img src='G_1.jpg' height='90'> <img src='G_6.jpg' height='90'> <img src='G_4.jpg' height='90'> <img src='G_8.jpg' height='90'> <img src='G_5.jpg' height='90'>","1","Learning example 1",""
"","","","","","html-button-response","160","479248","0.0-112.0","52","1","2025-01-29 23:05:34","af8d355d56820e421d246a7037deb6e6","108.234.90.222","Mozilla/5.0 (Windows NT 10.0; Win64; x64; rv:134.0) Gecko/20100101 Firefox/134.0","","Firefox","134.0","Windows","10.0","https://app.prolific.com/","en-US,en;q=0.5","5a8cba1a8fe2dc00010643f0","67949641171f97c04e14fb34","679ab429ebcf47617fe24215","","null","<img  src='G_7.jpg' height='90'> <img  src='G_3.jpg' height='90'> <img src='G_2.jpg' height='90'> <img src='G_1.jpg' height='90'> <img src='G_6.jpg' height='90'> <img src='G_4.jpg' height='90'> <img src='G_8.jpg' height='90'> <img src='G_5.jpg' height='90'>","null","Learning example 1",""
"","","","","","html-button-response","161","479651","0.0-113.0","52","1","2025-01-29 23:05:34","af8d355d56820e421d246a7037deb6e6","108.234.90.222","Mozilla/5.0 (Windows NT 10.0; Win64; x64; rv:134.0) Gecko/20100101 Firefox/134.0","","Firefox","134.0","Windows","10.0","https://app.prolific.com/","en-US,en;q=0.5","5a8cba1a8fe2dc00010643f0","67949641171f97c04e14fb34","679ab429ebcf47617fe24215","","null","<img  src='G_7.jpg' height='90'> <img id='selected'  src='G_3.jpg' height='90'> <img src='G_2.jpg' height='90'> <img src='G_1.jpg' height='90'> <img src='G_6.jpg' height='90'> <img src='G_4.jpg' height='90'> <img src='G_8.jpg' height='90'> <img src='G_5.jpg' height='90'>","null","Learning example 1",""
"","","","","","html-button-response","162","479961","0.0-114.0","52","1","2025-01-29 23:05:34","af8d355d56820e421d246a7037deb6e6","108.234.90.222","Mozilla/5.0 (Windows NT 10.0; Win64; x64; rv:134.0) Gecko/20100101 Firefox/134.0","","Firefox","134.0","Windows","10.0","https://app.prolific.com/","en-US,en;q=0.5","5a8cba1a8fe2dc00010643f0","67949641171f97c04e14fb34","679ab429ebcf47617fe24215","","null","<img  src='G_7.jpg' height='90'> <img id='selected'  src='G_3.jpg' height='90'> <img id='selected' src='G_2.jpg' height='90'> <img src='G_1.jpg' height='90'> <img src='G_6.jpg' height='90'> <img src='G_4.jpg' height='90'> <img src='G_8.jpg' height='90'> <img src='G_5.jpg' height='90'>","null","Learning example 1",""
"","","","","","html-button-response","163","480271","0.0-115.0","52","1","2025-01-29 23:05:34","af8d355d56820e421d246a7037deb6e6","108.234.90.222","Mozilla/5.0 (Windows NT 10.0; Win64; x64; rv:134.0) Gecko/20100101 Firefox/134.0","","Firefox","134.0","Windows","10.0","https://app.prolific.com/","en-US,en;q=0.5","5a8cba1a8fe2dc00010643f0","67949641171f97c04e14fb34","679ab429ebcf47617fe24215","","null","<img  src='G_7.jpg' height='90'> <img id='swapped' src='G_2.jpg' height='90'> <img id='swapped'  src='G_3.jpg' height='90'> <img src='G_1.jpg' height='90'> <img src='G_6.jpg' height='90'> <img src='G_4.jpg' height='90'> <img src='G_8.jpg' height='90'> <img src='G_5.jpg' height='90'>","null","Learning example 1",""
