success,timeout,failed_images,failed_audio,failed_video,trial_type,trial_index,time_elapsed,internal_node_id,run_id,condition,recorded_at,source_code_version,ip,user_agent,device,browser,browser_version,platform,platform_version,referer,accept_language,PROLIFIC_PID,STUDY_ID,SESSION_ID,view_history,rt,stimulus,response,phase,question_order
true,false,[],[],[],preload,0,3051,0.0-0.0,10,1,2025-01-20 19:53:42,8e5ef0ea70509e21e61f535100ed03ac,206.251.202.37,Mozilla/5.0 (Windows NT 10.0; Win64; x64; rv:134.0) Gecko/20100101 Firefox/134.0,,Firefox,134.0,Windows,10.0,https://app.prolific.com/,"en-US,en;q=0.5",6772aeebf2034af0ea4f5a63,678b1bdf6d0aefd65c71dcd2,678ea9b2d46dc84e86f4177d,,,,,,
,,,,,instructions,1,18255,0.0-1.0,10,1,2025-01-20 19:53:42,8e5ef0ea70509e21e61f535100ed03ac,206.251.202.37,Mozilla/5.0 (Windows NT 10.0; Win64; x64; rv:134.0) Gecko/20100101 Firefox/134.0,,Firefox,134.0,Windows,10.0,https://app.prolific.com/,"en-US,en;q=0.5",6772aeebf2034af0ea4f5a63,678b1bdf6d0aefd65c71dcd2,678ea9b2d46dc84e86f4177d,"[{""page_index"":0,""viewing_time"":15194}]",15197,,,,
,,,,,html-keyboard-response,2,18777,0.0-2.0,10,1,2025-01-20 19:53:42,8e5ef0ea70509e21e61f535100ed03ac,206.251.202.37,Mozilla/5.0 (Windows NT 10.0; Win64; x64; rv:134.0) Gecko/20100101 Firefox/134.0,,Firefox,134.0,Windows,10.0,https://app.prolific.com/,"en-US,en;q=0.5",6772aeebf2034af0ea4f5a63,678b1bdf6d0aefd65c71dcd2,678ea9b2d46dc84e86f4177d,,null,<p> + <p/>,null,,
,,,,,instructions,3,111794,0.0-3.0,10,1,2025-01-20 19:53:42,8e5ef0ea70509e21e61f535100ed03ac,206.251.202.37,Mozilla/5.0 (Windows NT 10.0; Win64; x64; rv:134.0) Gecko/20100101 Firefox/134.0,,Firefox,134.0,Windows,10.0,https://app.prolific.com/,"en-US,en;q=0.5",6772aeebf2034af0ea4f5a63,678b1bdf6d0aefd65c71dcd2,678ea9b2d46dc84e86f4177d,"[{""page_index"":0,""viewing_time"":7486},{""page_index"":1,""viewing_time"":20820},{""page_index"":2,""viewing_time"":33643},{""page_index"":3,""viewing_time"":16815},{""page_index"":4,""viewing_time"":14249}]",93014,,,,
,,,,,html-button-response,4,147579,0.0-4.0-0.0-0.0,10,1,2025-01-20 19:53:42,8e5ef0ea70509e21e61f535100ed03ac,206.251.202.37,Mozilla/5.0 (Windows NT 10.0; Win64; x64; rv:134.0) Gecko/20100101 Firefox/134.0,,Firefox,134.0,Windows,10.0,https://app.prolific.com/,"en-US,en;q=0.5",6772aeebf2034af0ea4f5a63,678b1bdf6d0aefd65c71dcd2,678ea9b2d46dc84e86f4177d,,35773,,2,,
,,,,,html-button-response,5,149203,0.0-4.1-0.1-0.1,10,1,2025-01-20 19:53:42,8e5ef0ea70509e21e61f535100ed03ac,206.251.202.37,Mozilla/5.0 (Windows NT 10.0; Win64; x64; rv:134.0) Gecko/20100101 Firefox/134.0,,Firefox,134.0,Windows,10.0,https://app.prolific.com/,"en-US,en;q=0.5",6772aeebf2034af0ea4f5a63,678b1bdf6d0aefd65c71dcd2,678ea9b2d46dc84e86f4177d,,1612,,4,,
,,,,,html-button-response,6,156113,0.0-4.2-0.2-0.2,10,1,2025-01-20 19:53:42,8e5ef0ea70509e21e61f535100ed03ac,206.251.202.37,Mozilla/5.0 (Windows NT 10.0; Win64; x64; rv:134.0) Gecko/20100101 Firefox/134.0,,Firefox,134.0,Windows,10.0,https://app.prolific.com/,"en-US,en;q=0.5",6772aeebf2034af0ea4f5a63,678b1bdf6d0aefd65c71dcd2,678ea9b2d46dc84e86f4177d,,6899,,2,,
,,,,,html-button-response,7,158307,0.0-4.3-0.3-0.3,10,1,2025-01-20 19:53:42,8e5ef0ea70509e21e61f535100ed03ac,206.251.202.37,Mozilla/5.0 (Windows NT 10.0; Win64; x64; rv:134.0) Gecko/20100101 Firefox/134.0,,Firefox,134.0,Windows,10.0,https://app.prolific.com/,"en-US,en;q=0.5",6772aeebf2034af0ea4f5a63,678b1bdf6d0aefd65c71dcd2,678ea9b2d46dc84e86f4177d,,2173,,2,,
,,,,,html-button-response,8,158503,0.0-4.4-0.4-0.4,10,1,2025-01-20 19:53:42,8e5ef0ea70509e21e61f535100ed03ac,206.251.202.37,Mozilla/5.0 (Windows NT 10.0; Win64; x64; rv:134.0) Gecko/20100101 Firefox/134.0,,Firefox,134.0,Windows,10.0,https://app.prolific.com/,"en-US,en;q=0.5",6772aeebf2034af0ea4f5a63,678b1bdf6d0aefd65c71dcd2,678ea9b2d46dc84e86f4177d,,189,,2,,
,,,,,html-button-response,9,160067,0.0-4.5-0.5-0.5,10,1,2025-01-20 19:53:42,8e5ef0ea70509e21e61f535100ed03ac,206.251.202.37,Mozilla/5.0 (Windows NT 10.0; Win64; x64; rv:134.0) Gecko/20100101 Firefox/134.0,,Firefox,134.0,Windows,10.0,https://app.prolific.com/,"en-US,en;q=0.5",6772aeebf2034af0ea4f5a63,678b1bdf6d0aefd65c71dcd2,678ea9b2d46dc84e86f4177d,,1555,,4,,
,,,,,html-button-response,10,160258,0.0-4.6-0.6-0.6,10,1,2025-01-20 19:53:42,8e5ef0ea70509e21e61f535100ed03ac,206.251.202.37,Mozilla/5.0 (Windows NT 10.0; Win64; x64; rv:134.0) Gecko/20100101 Firefox/134.0,,Firefox,134.0,Windows,10.0,https://app.prolific.com/,"en-US,en;q=0.5",6772aeebf2034af0ea4f5a63,678b1bdf6d0aefd65c71dcd2,678ea9b2d46dc84e86f4177d,,181,,4,,
,,,,,html-button-response,11,162962,0.0-4.7-0.7-0.7,10,1,2025-01-20 19:53:42,8e5ef0ea70509e21e61f535100ed03ac,206.251.202.37,Mozilla/5.0 (Windows NT 10.0; Win64; x64; rv:134.0) Gecko/20100101 Firefox/134.0,,Firefox,134.0,Windows,10.0,https://app.prolific.com/,"en-US,en;q=0.5",6772aeebf2034af0ea4f5a63,678b1bdf6d0aefd65c71dcd2,678ea9b2d46dc84e86f4177d,,2696,,5,,
,,,,,html-keyboard-response,12,180642,0.0-5.0,10,1,2025-01-20 19:53:42,8e5ef0ea70509e21e61f535100ed03ac,206.251.202.37,Mozilla/5.0 (Windows NT 10.0; Win64; x64; rv:134.0) Gecko/20100101 Firefox/134.0,,Firefox,134.0,Windows,10.0,https://app.prolific.com/,"en-US,en;q=0.5",6772aeebf2034af0ea4f5a63,678b1bdf6d0aefd65c71dcd2,678ea9b2d46dc84e86f4177d,,17669,"[""You sorted incorrectly by using the balance 2 times. <br><br> <img src='G_1.jpg' height='90'><img src='G_2.jpg' height='90'><img src='G_5.jpg' height='90'><img src='G_4.jpg' height='90'><img src='G_3.jpg' height='90'><br><br> Your final order is 4,2,1,5,3<br><br><br>Omgne Sort in this game will allow you to sort correctly by using the balance 8 times. Press Enter to learn it!""]",enter,,
,,,,,html-keyboard-response,13,188068,0.0-6.0,10,1,2025-01-20 19:53:42,8e5ef0ea70509e21e61f535100ed03ac,206.251.202.37,Mozilla/5.0 (Windows NT 10.0; Win64; x64; rv:134.0) Gecko/20100101 Firefox/134.0,,Firefox,134.0,Windows,10.0,https://app.prolific.com/,"en-US,en;q=0.5",6772aeebf2034af0ea4f5a63,678b1bdf6d0aefd65c71dcd2,678ea9b2d46dc84e86f4177d,,7424,<p>Welcome to the learning phase! <br><br> You will learn by six examples. The following learning trials will not be used to calculate your performance. <br><br> Press Enter to continue.<p/>,enter,,
,,,,,html-keyboard-response,14,195834,0.0-7.0,10,1,2025-01-20 19:53:42,8e5ef0ea70509e21e61f535100ed03ac,206.251.202.37,Mozilla/5.0 (Windows NT 10.0; Win64; x64; rv:134.0) Gecko/20100101 Firefox/134.0,,Firefox,134.0,Windows,10.0,https://app.prolific.com/,"en-US,en;q=0.5",6772aeebf2034af0ea4f5a63,678b1bdf6d0aefd65c71dcd2,678ea9b2d46dc84e86f4177d,,7761,"[""Example 1<br><br>You will watch Omnge Sort in action. Try to identify any patterns in the comparisons made by this method. <br><br>Press Enter to continue.""]",enter,,
,,,,,html-keyboard-response,15,196342,0.0-8.0,10,1,2025-01-20 19:53:42,8e5ef0ea70509e21e61f535100ed03ac,206.251.202.37,Mozilla/5.0 (Windows NT 10.0; Win64; x64; rv:134.0) Gecko/20100101 Firefox/134.0,,Firefox,134.0,Windows,10.0,https://app.prolific.com/,"en-US,en;q=0.5",6772aeebf2034af0ea4f5a63,678b1bdf6d0aefd65c71dcd2,678ea9b2d46dc84e86f4177d,,null,<img id='selected' src='G_5.jpg' height='90'> <img src='G_1.jpg' height='90'> <img src='G_9.jpg' height='90'> <img src='G_3.jpg' height='90'> <img src='G_7.jpg' height='90'>,null,Animation0,
,,,,,html-keyboard-response,16,196858,0.0-9.0,10,1,2025-01-20 19:53:42,8e5ef0ea70509e21e61f535100ed03ac,206.251.202.37,Mozilla/5.0 (Windows NT 10.0; Win64; x64; rv:134.0) Gecko/20100101 Firefox/134.0,,Firefox,134.0,Windows,10.0,https://app.prolific.com/,"en-US,en;q=0.5",6772aeebf2034af0ea4f5a63,678b1bdf6d0aefd65c71dcd2,678ea9b2d46dc84e86f4177d,,null,<img id='selected' src='G_5.jpg' height='90'> <img id='selected' src='G_1.jpg' height='90'> <img src='G_9.jpg' height='90'> <img src='G_3.jpg' height='90'> <img src='G_7.jpg' height='90'>,null,Animation0,
,,,,,html-keyboard-response,17,197374,0.0-10.0,10,1,2025-01-20 19:53:42,8e5ef0ea70509e21e61f535100ed03ac,206.251.202.37,Mozilla/5.0 (Windows NT 10.0; Win64; x64; rv:134.0) Gecko/20100101 Firefox/134.0,,Firefox,134.0,Windows,10.0,https://app.prolific.com/,"en-US,en;q=0.5",6772aeebf2034af0ea4f5a63,678b1bdf6d0aefd65c71dcd2,678ea9b2d46dc84e86f4177d,,null,<img id='swapped' src='G_1.jpg' height='90'> <img id='swapped' src='G_5.jpg' height='90'> <img src='G_9.jpg' height='90'> <img src='G_3.jpg' height='90'> <img src='G_7.jpg' height='90'>,null,Animation0,
,,,,,html-keyboard-response,18,197690,0.0-11.0,10,1,2025-01-20 19:53:42,8e5ef0ea70509e21e61f535100ed03ac,206.251.202.37,Mozilla/5.0 (Windows NT 10.0; Win64; x64; rv:134.0) Gecko/20100101 Firefox/134.0,,Firefox,134.0,Windows,10.0,https://app.prolific.com/,"en-US,en;q=0.5",6772aeebf2034af0ea4f5a63,678b1bdf6d0aefd65c71dcd2,678ea9b2d46dc84e86f4177d,,null,<img  src='G_1.jpg' height='90'> <img  src='G_5.jpg' height='90'> <img src='G_9.jpg' height='90'> <img src='G_3.jpg' height='90'> <img src='G_7.jpg' height='90'>,null,Animation0,
,,,,,html-keyboard-response,19,198213,0.0-12.0,10,1,2025-01-20 19:53:42,8e5ef0ea70509e21e61f535100ed03ac,206.251.202.37,Mozilla/5.0 (Windows NT 10.0; Win64; x64; rv:134.0) Gecko/20100101 Firefox/134.0,,Firefox,134.0,Windows,10.0,https://app.prolific.com/,"en-US,en;q=0.5",6772aeebf2034af0ea4f5a63,678b1bdf6d0aefd65c71dcd2,678ea9b2d46dc84e86f4177d,,null,<img  src='G_1.jpg' height='90'> <img id='selected'  src='G_5.jpg' height='90'> <img src='G_9.jpg' height='90'> <img src='G_3.jpg' height='90'> <img src='G_7.jpg' height='90'>,null,Animation0,
,,,,,html-keyboard-response,20,198729,0.0-13.0,10,1,2025-01-20 19:53:42,8e5ef0ea70509e21e61f535100ed03ac,206.251.202.37,Mozilla/5.0 (Windows NT 10.0; Win64; x64; rv:134.0) Gecko/20100101 Firefox/134.0,,Firefox,134.0,Windows,10.0,https://app.prolific.com/,"en-US,en;q=0.5",6772aeebf2034af0ea4f5a63,678b1bdf6d0aefd65c71dcd2,678ea9b2d46dc84e86f4177d,,null,<img  src='G_1.jpg' height='90'> <img id='selected'  src='G_5.jpg' height='90'> <img id='selected' src='G_9.jpg' height='90'> <img src='G_3.jpg' height='90'> <img src='G_7.jpg' height='90'>,null,Animation0,
,,,,,html-keyboard-response,21,199245,0.0-14.0,10,1,2025-01-20 19:53:42,8e5ef0ea70509e21e61f535100ed03ac,206.251.202.37,Mozilla/5.0 (Windows NT 10.0; Win64; x64; rv:134.0) Gecko/20100101 Firefox/134.0,,Firefox,134.0,Windows,10.0,https://app.prolific.com/,"en-US,en;q=0.5",6772aeebf2034af0ea4f5a63,678b1bdf6d0aefd65c71dcd2,678ea9b2d46dc84e86f4177d,,null,<img  src='G_1.jpg' height='90'> <img id='selected'  src='G_5.jpg' height='90'> <img id='selected' src='G_9.jpg' height='90'> <img src='G_3.jpg' height='90'> <img src='G_7.jpg' height='90'>,null,Animation0,
,,,,,html-keyboard-response,22,199562,0.0-15.0,10,1,2025-01-20 19:53:42,8e5ef0ea70509e21e61f535100ed03ac,206.251.202.37,Mozilla/5.0 (Windows NT 10.0; Win64; x64; rv:134.0) Gecko/20100101 Firefox/134.0,,Firefox,134.0,Windows,10.0,https://app.prolific.com/,"en-US,en;q=0.5",6772aeebf2034af0ea4f5a63,678b1bdf6d0aefd65c71dcd2,678ea9b2d46dc84e86f4177d,,null,<img  src='G_1.jpg' height='90'> <img   src='G_5.jpg' height='90'> <img  src='G_9.jpg' height='90'> <img src='G_3.jpg' height='90'> <img src='G_7.jpg' height='90'>,null,Animation0,
,,,,,html-keyboard-response,23,200077,0.0-16.0,10,1,2025-01-20 19:53:42,8e5ef0ea70509e21e61f535100ed03ac,206.251.202.37,Mozilla/5.0 (Windows NT 10.0; Win64; x64; rv:134.0) Gecko/20100101 Firefox/134.0,,Firefox,134.0,Windows,10.0,https://app.prolific.com/,"en-US,en;q=0.5",6772aeebf2034af0ea4f5a63,678b1bdf6d0aefd65c71dcd2,678ea9b2d46dc84e86f4177d,,null,<img  src='G_1.jpg' height='90'> <img   src='G_5.jpg' height='90'> <img id='selected'  src='G_9.jpg' height='90'> <img src='G_3.jpg' height='90'> <img src='G_7.jpg' height='90'>,null,Animation0,
,,,,,html-keyboard-response,24,200595,0.0-17.0,10,1,2025-01-20 19:53:42,8e5ef0ea70509e21e61f535100ed03ac,206.251.202.37,Mozilla/5.0 (Windows NT 10.0; Win64; x64; rv:134.0) Gecko/20100101 Firefox/134.0,,Firefox,134.0,Windows,10.0,https://app.prolific.com/,"en-US,en;q=0.5",6772aeebf2034af0ea4f5a63,678b1bdf6d0aefd65c71dcd2,678ea9b2d46dc84e86f4177d,,null,<img  src='G_1.jpg' height='90'> <img   src='G_5.jpg' height='90'> <img id='selected'  src='G_9.jpg' height='90'> <img id='selected' src='G_3.jpg' height='90'> <img src='G_7.jpg' height='90'>,null,Animation0,
,,,,,html-keyboard-response,25,201119,0.0-18.0,10,1,2025-01-20 19:53:42,8e5ef0ea70509e21e61f535100ed03ac,206.251.202.37,Mozilla/5.0 (Windows NT 10.0; Win64; x64; rv:134.0) Gecko/20100101 Firefox/134.0,,Firefox,134.0,Windows,10.0,https://app.prolific.com/,"en-US,en;q=0.5",6772aeebf2034af0ea4f5a63,678b1bdf6d0aefd65c71dcd2,678ea9b2d46dc84e86f4177d,,null,<img  src='G_1.jpg' height='90'> <img   src='G_5.jpg' height='90'> <img id='selected'  src='G_9.jpg' height='90'> <img id='selected' src='G_3.jpg' height='90'> <img src='G_7.jpg' height='90'>,null,Animation0,
,,,,,html-keyboard-response,26,201433,0.0-19.0,10,1,2025-01-20 19:53:42,8e5ef0ea70509e21e61f535100ed03ac,206.251.202.37,Mozilla/5.0 (Windows NT 10.0; Win64; x64; rv:134.0) Gecko/20100101 Firefox/134.0,,Firefox,134.0,Windows,10.0,https://app.prolific.com/,"en-US,en;q=0.5",6772aeebf2034af0ea4f5a63,678b1bdf6d0aefd65c71dcd2,678ea9b2d46dc84e86f4177d,,null,<img  src='G_1.jpg' height='90'> <img   src='G_5.jpg' height='90'> <img   src='G_9.jpg' height='90'> <img  src='G_3.jpg' height='90'> <img src='G_7.jpg' height='90'>,null,Animation0,
,,,,,html-keyboard-response,27,201949,0.0-20.0,10,1,2025-01-20 19:53:42,8e5ef0ea70509e21e61f535100ed03ac,206.251.202.37,Mozilla/5.0 (Windows NT 10.0; Win64; x64; rv:134.0) Gecko/20100101 Firefox/134.0,,Firefox,134.0,Windows,10.0,https://app.prolific.com/,"en-US,en;q=0.5",6772aeebf2034af0ea4f5a63,678b1bdf6d0aefd65c71dcd2,678ea9b2d46dc84e86f4177d,,null,<img  src='G_1.jpg' height='90'> <img   src='G_5.jpg' height='90'> <img   src='G_9.jpg' height='90'> <img id='selected'  src='G_3.jpg' height='90'> <img src='G_7.jpg' height='90'>,null,Animation0,
,,,,,html-keyboard-response,28,202476,0.0-21.0,10,1,2025-01-20 19:53:42,8e5ef0ea70509e21e61f535100ed03ac,206.251.202.37,Mozilla/5.0 (Windows NT 10.0; Win64; x64; rv:134.0) Gecko/20100101 Firefox/134.0,,Firefox,134.0,Windows,10.0,https://app.prolific.com/,"en-US,en;q=0.5",6772aeebf2034af0ea4f5a63,678b1bdf6d0aefd65c71dcd2,678ea9b2d46dc84e86f4177d,,null,<img  src='G_1.jpg' height='90'> <img   src='G_5.jpg' height='90'> <img   src='G_9.jpg' height='90'> <img id='selected'  src='G_3.jpg' height='90'> <img id='selected' src='G_7.jpg' height='90'>,null,Animation0,
,,,,,html-keyboard-response,29,202997,0.0-22.0,10,1,2025-01-20 19:53:42,8e5ef0ea70509e21e61f535100ed03ac,206.251.202.37,Mozilla/5.0 (Windows NT 10.0; Win64; x64; rv:134.0) Gecko/20100101 Firefox/134.0,,Firefox,134.0,Windows,10.0,https://app.prolific.com/,"en-US,en;q=0.5",6772aeebf2034af0ea4f5a63,678b1bdf6d0aefd65c71dcd2,678ea9b2d46dc84e86f4177d,,null,<img  src='G_1.jpg' height='90'> <img   src='G_5.jpg' height='90'> <img   src='G_9.jpg' height='90'> <img id='selected'  src='G_3.jpg' height='90'> <img id='selected' src='G_7.jpg' height='90'>,null,Animation0,
,,,,,html-keyboard-response,30,203321,0.0-23.0,10,1,2025-01-20 19:53:42,8e5ef0ea70509e21e61f535100ed03ac,206.251.202.37,Mozilla/5.0 (Windows NT 10.0; Win64; x64; rv:134.0) Gecko/20100101 Firefox/134.0,,Firefox,134.0,Windows,10.0,https://app.prolific.com/,"en-US,en;q=0.5",6772aeebf2034af0ea4f5a63,678b1bdf6d0aefd65c71dcd2,678ea9b2d46dc84e86f4177d,,null,<img  src='G_1.jpg' height='90'> <img   src='G_5.jpg' height='90'> <img   src='G_9.jpg' height='90'> <img   src='G_3.jpg' height='90'> <img  src='G_7.jpg' height='90'>,null,Animation0,
,,,,,html-keyboard-response,31,207829,0.0-24.0,10,1,2025-01-20 19:53:42,8e5ef0ea70509e21e61f535100ed03ac,206.251.202.37,Mozilla/5.0 (Windows NT 10.0; Win64; x64; rv:134.0) Gecko/20100101 Firefox/134.0,,Firefox,134.0,Windows,10.0,https://app.prolific.com/,"en-US,en;q=0.5",6772aeebf2034af0ea4f5a63,678b1bdf6d0aefd65c71dcd2,678ea9b2d46dc84e86f4177d,,4502,"[""Did you notice any patterns? <br><br>Press Enter to watch that example again and follow the steps of Omgne Sort.""]",enter,,
,,,,,html-button-response,32,208243,0.0-25.0,10,1,2025-01-20 19:53:42,8e5ef0ea70509e21e61f535100ed03ac,206.251.202.37,Mozilla/5.0 (Windows NT 10.0; Win64; x64; rv:134.0) Gecko/20100101 Firefox/134.0,,Firefox,134.0,Windows,10.0,https://app.prolific.com/,"en-US,en;q=0.5",6772aeebf2034af0ea4f5a63,678b1bdf6d0aefd65c71dcd2,678ea9b2d46dc84e86f4177d,,null,<img id='selected' src='G_5.jpg' height='90'> <img src='G_1.jpg' height='90'> <img src='G_9.jpg' height='90'> <img src='G_3.jpg' height='90'> <img src='G_7.jpg' height='90'>,null,Learning example 0,
,,,,,html-button-response,33,208558,0.0-26.0,10,1,2025-01-20 19:53:42,8e5ef0ea70509e21e61f535100ed03ac,206.251.202.37,Mozilla/5.0 (Windows NT 10.0; Win64; x64; rv:134.0) Gecko/20100101 Firefox/134.0,,Firefox,134.0,Windows,10.0,https://app.prolific.com/,"en-US,en;q=0.5",6772aeebf2034af0ea4f5a63,678b1bdf6d0aefd65c71dcd2,678ea9b2d46dc84e86f4177d,,null,<img id='selected' src='G_5.jpg' height='90'> <img id='selected' src='G_1.jpg' height='90'> <img src='G_9.jpg' height='90'> <img src='G_3.jpg' height='90'> <img src='G_7.jpg' height='90'>,null,Learning example 0,
,,,,,html-button-response,34,208875,0.0-27.0,10,1,2025-01-20 19:53:42,8e5ef0ea70509e21e61f535100ed03ac,206.251.202.37,Mozilla/5.0 (Windows NT 10.0; Win64; x64; rv:134.0) Gecko/20100101 Firefox/134.0,,Firefox,134.0,Windows,10.0,https://app.prolific.com/,"en-US,en;q=0.5",6772aeebf2034af0ea4f5a63,678b1bdf6d0aefd65c71dcd2,678ea9b2d46dc84e86f4177d,,null,<img id='swapped' src='G_1.jpg' height='90'> <img id='swapped' src='G_5.jpg' height='90'> <img src='G_9.jpg' height='90'> <img src='G_3.jpg' height='90'> <img src='G_7.jpg' height='90'>,null,Learning example 0,
,,,,,html-button-response,35,239217,0.0-28.0-0.0-0.0,10,1,2025-01-20 19:53:42,8e5ef0ea70509e21e61f535100ed03ac,206.251.202.37,Mozilla/5.0 (Windows NT 10.0; Win64; x64; rv:134.0) Gecko/20100101 Firefox/134.0,,Firefox,134.0,Windows,10.0,https://app.prolific.com/,"en-US,en;q=0.5",6772aeebf2034af0ea4f5a63,678b1bdf6d0aefd65c71dcd2,678ea9b2d46dc84e86f4177d,,30324,<img id='swapped' src='G_1.jpg' height='90'> <img id='swapped' src='G_5.jpg' height='90'> <img src='G_9.jpg' height='90'> <img src='G_3.jpg' height='90'> <img src='G_7.jpg' height='90'>,0,Learning example 0,
,,,,,html-button-response,36,240055,0.0-28.1-0.1-0.1,10,1,2025-01-20 19:53:42,8e5ef0ea70509e21e61f535100ed03ac,206.251.202.37,Mozilla/5.0 (Windows NT 10.0; Win64; x64; rv:134.0) Gecko/20100101 Firefox/134.0,,Firefox,134.0,Windows,10.0,https://app.prolific.com/,"en-US,en;q=0.5",6772aeebf2034af0ea4f5a63,678b1bdf6d0aefd65c71dcd2,678ea9b2d46dc84e86f4177d,,828,<img id='swapped' src='G_1.jpg' height='90'> <img id='swapped' src='G_5.jpg' height='90'> <img src='G_9.jpg' height='90'> <img src='G_3.jpg' height='90'> <img src='G_7.jpg' height='90'>,1,Learning example 0,
,,,,,html-button-response,37,240280,0.0-29.0,10,1,2025-01-20 19:53:42,8e5ef0ea70509e21e61f535100ed03ac,206.251.202.37,Mozilla/5.0 (Windows NT 10.0; Win64; x64; rv:134.0) Gecko/20100101 Firefox/134.0,,Firefox,134.0,Windows,10.0,https://app.prolific.com/,"en-US,en;q=0.5",6772aeebf2034af0ea4f5a63,678b1bdf6d0aefd65c71dcd2,678ea9b2d46dc84e86f4177d,,null,<img  src='G_1.jpg' height='90'> <img  src='G_5.jpg' height='90'> <img src='G_9.jpg' height='90'> <img src='G_3.jpg' height='90'> <img src='G_7.jpg' height='90'>,null,Learning example 0,
,,,,,html-button-response,38,240702,0.0-30.0,10,1,2025-01-20 19:53:42,8e5ef0ea70509e21e61f535100ed03ac,206.251.202.37,Mozilla/5.0 (Windows NT 10.0; Win64; x64; rv:134.0) Gecko/20100101 Firefox/134.0,,Firefox,134.0,Windows,10.0,https://app.prolific.com/,"en-US,en;q=0.5",6772aeebf2034af0ea4f5a63,678b1bdf6d0aefd65c71dcd2,678ea9b2d46dc84e86f4177d,,null,<img  src='G_1.jpg' height='90'> <img id='selected'  src='G_5.jpg' height='90'> <img src='G_9.jpg' height='90'> <img src='G_3.jpg' height='90'> <img src='G_7.jpg' height='90'>,null,Learning example 0,
,,,,,html-button-response,39,241035,0.0-31.0,10,1,2025-01-20 19:53:42,8e5ef0ea70509e21e61f535100ed03ac,206.251.202.37,Mozilla/5.0 (Windows NT 10.0; Win64; x64; rv:134.0) Gecko/20100101 Firefox/134.0,,Firefox,134.0,Windows,10.0,https://app.prolific.com/,"en-US,en;q=0.5",6772aeebf2034af0ea4f5a63,678b1bdf6d0aefd65c71dcd2,678ea9b2d46dc84e86f4177d,,null,<img  src='G_1.jpg' height='90'> <img id='selected'  src='G_5.jpg' height='90'> <img id='selected' src='G_9.jpg' height='90'> <img src='G_3.jpg' height='90'> <img src='G_7.jpg' height='90'>,null,Learning example 0,
,,,,,html-button-response,40,241367,0.0-32.0,10,1,2025-01-20 19:53:42,8e5ef0ea70509e21e61f535100ed03ac,206.251.202.37,Mozilla/5.0 (Windows NT 10.0; Win64; x64; rv:134.0) Gecko/20100101 Firefox/134.0,,Firefox,134.0,Windows,10.0,https://app.prolific.com/,"en-US,en;q=0.5",6772aeebf2034af0ea4f5a63,678b1bdf6d0aefd65c71dcd2,678ea9b2d46dc84e86f4177d,,null,<img  src='G_1.jpg' height='90'> <img id='selected'  src='G_5.jpg' height='90'> <img id='selected' src='G_9.jpg' height='90'> <img src='G_3.jpg' height='90'> <img src='G_7.jpg' height='90'>,null,Learning example 0,
,,,,,html-button-response,41,244258,0.0-33.0-0.0-0.0,10,1,2025-01-20 19:53:42,8e5ef0ea70509e21e61f535100ed03ac,206.251.202.37,Mozilla/5.0 (Windows NT 10.0; Win64; x64; rv:134.0) Gecko/20100101 Firefox/134.0,,Firefox,134.0,Windows,10.0,https://app.prolific.com/,"en-US,en;q=0.5",6772aeebf2034af0ea4f5a63,678b1bdf6d0aefd65c71dcd2,678ea9b2d46dc84e86f4177d,,2878,<img  src='G_1.jpg' height='90'> <img id='selected'  src='G_5.jpg' height='90'> <img id='selected' src='G_9.jpg' height='90'> <img src='G_3.jpg' height='90'> <img src='G_7.jpg' height='90'>,1,Learning example 0,
,,,,,html-button-response,42,245613,0.0-33.1-0.1-0.1,10,1,2025-01-20 19:53:42,8e5ef0ea70509e21e61f535100ed03ac,206.251.202.37,Mozilla/5.0 (Windows NT 10.0; Win64; x64; rv:134.0) Gecko/20100101 Firefox/134.0,,Firefox,134.0,Windows,10.0,https://app.prolific.com/,"en-US,en;q=0.5",6772aeebf2034af0ea4f5a63,678b1bdf6d0aefd65c71dcd2,678ea9b2d46dc84e86f4177d,,1344,<img  src='G_1.jpg' height='90'> <img id='selected'  src='G_5.jpg' height='90'> <img id='selected' src='G_9.jpg' height='90'> <img src='G_3.jpg' height='90'> <img src='G_7.jpg' height='90'>,2,Learning example 0,
,,,,,html-button-response,43,245829,0.0-34.0,10,1,2025-01-20 19:53:42,8e5ef0ea70509e21e61f535100ed03ac,206.251.202.37,Mozilla/5.0 (Windows NT 10.0; Win64; x64; rv:134.0) Gecko/20100101 Firefox/134.0,,Firefox,134.0,Windows,10.0,https://app.prolific.com/,"en-US,en;q=0.5",6772aeebf2034af0ea4f5a63,678b1bdf6d0aefd65c71dcd2,678ea9b2d46dc84e86f4177d,,null,<img  src='G_1.jpg' height='90'> <img   src='G_5.jpg' height='90'> <img  src='G_9.jpg' height='90'> <img src='G_3.jpg' height='90'> <img src='G_7.jpg' height='90'>,null,Learning example 0,
,,,,,html-button-response,44,246247,0.0-35.0,10,1,2025-01-20 19:53:42,8e5ef0ea70509e21e61f535100ed03ac,206.251.202.37,Mozilla/5.0 (Windows NT 10.0; Win64; x64; rv:134.0) Gecko/20100101 Firefox/134.0,,Firefox,134.0,Windows,10.0,https://app.prolific.com/,"en-US,en;q=0.5",6772aeebf2034af0ea4f5a63,678b1bdf6d0aefd65c71dcd2,678ea9b2d46dc84e86f4177d,,null,<img  src='G_1.jpg' height='90'> <img   src='G_5.jpg' height='90'> <img id='selected'  src='G_9.jpg' height='90'> <img src='G_3.jpg' height='90'> <img src='G_7.jpg' height='90'>,null,Learning example 0,
,,,,,html-button-response,45,246578,0.0-36.0,10,1,2025-01-20 19:53:42,8e5ef0ea70509e21e61f535100ed03ac,206.251.202.37,Mozilla/5.0 (Windows NT 10.0; Win64; x64; rv:134.0) Gecko/20100101 Firefox/134.0,,Firefox,134.0,Windows,10.0,https://app.prolific.com/,"en-US,en;q=0.5",6772aeebf2034af0ea4f5a63,678b1bdf6d0aefd65c71dcd2,678ea9b2d46dc84e86f4177d,,null,<img  src='G_1.jpg' height='90'> <img   src='G_5.jpg' height='90'> <img id='selected'  src='G_9.jpg' height='90'> <img id='selected' src='G_3.jpg' height='90'> <img src='G_7.jpg' height='90'>,null,Learning example 0,
,,,,,html-button-response,46,246918,0.0-37.0,10,1,2025-01-20 19:53:42,8e5ef0ea70509e21e61f535100ed03ac,206.251.202.37,Mozilla/5.0 (Windows NT 10.0; Win64; x64; rv:134.0) Gecko/20100101 Firefox/134.0,,Firefox,134.0,Windows,10.0,https://app.prolific.com/,"en-US,en;q=0.5",6772aeebf2034af0ea4f5a63,678b1bdf6d0aefd65c71dcd2,678ea9b2d46dc84e86f4177d,,null,<img  src='G_1.jpg' height='90'> <img   src='G_5.jpg' height='90'> <img id='selected'  src='G_9.jpg' height='90'> <img id='selected' src='G_3.jpg' height='90'> <img src='G_7.jpg' height='90'>,null,Learning example 0,
,,,,,html-button-response,47,248128,0.0-38.0-0.0-0.0,10,1,2025-01-20 19:53:42,8e5ef0ea70509e21e61f535100ed03ac,206.251.202.37,Mozilla/5.0 (Windows NT 10.0; Win64; x64; rv:134.0) Gecko/20100101 Firefox/134.0,,Firefox,134.0,Windows,10.0,https://app.prolific.com/,"en-US,en;q=0.5",6772aeebf2034af0ea4f5a63,678b1bdf6d0aefd65c71dcd2,678ea9b2d46dc84e86f4177d,,1197,<img  src='G_1.jpg' height='90'> <img   src='G_5.jpg' height='90'> <img id='selected'  src='G_9.jpg' height='90'> <img id='selected' src='G_3.jpg' height='90'> <img src='G_7.jpg' height='90'>,2,Learning example 0,
,,,,,html-button-response,48,249311,0.0-38.1-0.1-0.1,10,1,2025-01-20 19:53:42,8e5ef0ea70509e21e61f535100ed03ac,206.251.202.37,Mozilla/5.0 (Windows NT 10.0; Win64; x64; rv:134.0) Gecko/20100101 Firefox/134.0,,Firefox,134.0,Windows,10.0,https://app.prolific.com/,"en-US,en;q=0.5",6772aeebf2034af0ea4f5a63,678b1bdf6d0aefd65c71dcd2,678ea9b2d46dc84e86f4177d,,1172,<img  src='G_1.jpg' height='90'> <img   src='G_5.jpg' height='90'> <img id='selected'  src='G_9.jpg' height='90'> <img id='selected' src='G_3.jpg' height='90'> <img src='G_7.jpg' height='90'>,3,Learning example 0,
,,,,,html-button-response,49,249527,0.0-39.0,10,1,2025-01-20 19:53:42,8e5ef0ea70509e21e61f535100ed03ac,206.251.202.37,Mozilla/5.0 (Windows NT 10.0; Win64; x64; rv:134.0) Gecko/20100101 Firefox/134.0,,Firefox,134.0,Windows,10.0,https://app.prolific.com/,"en-US,en;q=0.5",6772aeebf2034af0ea4f5a63,678b1bdf6d0aefd65c71dcd2,678ea9b2d46dc84e86f4177d,,null,<img  src='G_1.jpg' height='90'> <img   src='G_5.jpg' height='90'> <img   src='G_9.jpg' height='90'> <img  src='G_3.jpg' height='90'> <img src='G_7.jpg' height='90'>,null,Learning example 0,
,,,,,html-button-response,50,249957,0.0-40.0,10,1,2025-01-20 19:53:42,8e5ef0ea70509e21e61f535100ed03ac,206.251.202.37,Mozilla/5.0 (Windows NT 10.0; Win64; x64; rv:134.0) Gecko/20100101 Firefox/134.0,,Firefox,134.0,Windows,10.0,https://app.prolific.com/,"en-US,en;q=0.5",6772aeebf2034af0ea4f5a63,678b1bdf6d0aefd65c71dcd2,678ea9b2d46dc84e86f4177d,,null,<img  src='G_1.jpg' height='90'> <img   src='G_5.jpg' height='90'> <img   src='G_9.jpg' height='90'> <img id='selected'  src='G_3.jpg' height='90'> <img src='G_7.jpg' height='90'>,null,Learning example 0,
,,,,,html-button-response,51,250273,0.0-41.0,10,1,2025-01-20 19:53:42,8e5ef0ea70509e21e61f535100ed03ac,206.251.202.37,Mozilla/5.0 (Windows NT 10.0; Win64; x64; rv:134.0) Gecko/20100101 Firefox/134.0,,Firefox,134.0,Windows,10.0,https://app.prolific.com/,"en-US,en;q=0.5",6772aeebf2034af0ea4f5a63,678b1bdf6d0aefd65c71dcd2,678ea9b2d46dc84e86f4177d,,null,<img  src='G_1.jpg' height='90'> <img   src='G_5.jpg' height='90'> <img   src='G_9.jpg' height='90'> <img id='selected'  src='G_3.jpg' height='90'> <img id='selected' src='G_7.jpg' height='90'>,null,Learning example 0,
,,,,,html-button-response,52,250589,0.0-42.0,10,1,2025-01-20 19:53:42,8e5ef0ea70509e21e61f535100ed03ac,206.251.202.37,Mozilla/5.0 (Windows NT 10.0; Win64; x64; rv:134.0) Gecko/20100101 Firefox/134.0,,Firefox,134.0,Windows,10.0,https://app.prolific.com/,"en-US,en;q=0.5",6772aeebf2034af0ea4f5a63,678b1bdf6d0aefd65c71dcd2,678ea9b2d46dc84e86f4177d,,null,<img  src='G_1.jpg' height='90'> <img   src='G_5.jpg' height='90'> <img   src='G_9.jpg' height='90'> <img id='selected'  src='G_3.jpg' height='90'> <img id='selected' src='G_7.jpg' height='90'>,null,Learning example 0,
,,,,,html-button-response,53,251426,0.0-43.0-0.0-0.0,10,1,2025-01-20 19:53:42,8e5ef0ea70509e21e61f535100ed03ac,206.251.202.37,Mozilla/5.0 (Windows NT 10.0; Win64; x64; rv:134.0) Gecko/20100101 Firefox/134.0,,Firefox,134.0,Windows,10.0,https://app.prolific.com/,"en-US,en;q=0.5",6772aeebf2034af0ea4f5a63,678b1bdf6d0aefd65c71dcd2,678ea9b2d46dc84e86f4177d,,824,<img  src='G_1.jpg' height='90'> <img   src='G_5.jpg' height='90'> <img   src='G_9.jpg' height='90'> <img id='selected'  src='G_3.jpg' height='90'> <img id='selected' src='G_7.jpg' height='90'>,3,Learning example 0,
,,,,,html-button-response,54,252343,0.0-43.1-0.1-0.1,10,1,2025-01-20 19:53:42,8e5ef0ea70509e21e61f535100ed03ac,206.251.202.37,Mozilla/5.0 (Windows NT 10.0; Win64; x64; rv:134.0) Gecko/20100101 Firefox/134.0,,Firefox,134.0,Windows,10.0,https://app.prolific.com/,"en-US,en;q=0.5",6772aeebf2034af0ea4f5a63,678b1bdf6d0aefd65c71dcd2,678ea9b2d46dc84e86f4177d,,905,<img  src='G_1.jpg' height='90'> <img   src='G_5.jpg' height='90'> <img   src='G_9.jpg' height='90'> <img id='selected'  src='G_3.jpg' height='90'> <img id='selected' src='G_7.jpg' height='90'>,4,Learning example 0,
,,,,,html-button-response,55,252562,0.0-44.0,10,1,2025-01-20 19:53:42,8e5ef0ea70509e21e61f535100ed03ac,206.251.202.37,Mozilla/5.0 (Windows NT 10.0; Win64; x64; rv:134.0) Gecko/20100101 Firefox/134.0,,Firefox,134.0,Windows,10.0,https://app.prolific.com/,"en-US,en;q=0.5",6772aeebf2034af0ea4f5a63,678b1bdf6d0aefd65c71dcd2,678ea9b2d46dc84e86f4177d,,null,<img  src='G_1.jpg' height='90'> <img   src='G_5.jpg' height='90'> <img   src='G_9.jpg' height='90'> <img   src='G_3.jpg' height='90'> <img  src='G_7.jpg' height='90'>,null,Learning example 0,
,,,,,html-keyboard-response,56,263470,0.0-45.0,10,1,2025-01-20 19:53:42,8e5ef0ea70509e21e61f535100ed03ac,206.251.202.37,Mozilla/5.0 (Windows NT 10.0; Win64; x64; rv:134.0) Gecko/20100101 Firefox/134.0,,Firefox,134.0,Windows,10.0,https://app.prolific.com/,"en-US,en;q=0.5",6772aeebf2034af0ea4f5a63,678b1bdf6d0aefd65c71dcd2,678ea9b2d46dc84e86f4177d,,10902,"[""Final order was 1,2,3,4,5. The initial order was 2,1,3,4,5.<br>It took 1 swaps to sort it correctly with Omgne Sort. <br><br>Press Enter to continue.""]",enter,,
,,,,,html-keyboard-response,57,266617,0.0-46.0,10,1,2025-01-20 19:53:42,8e5ef0ea70509e21e61f535100ed03ac,206.251.202.37,Mozilla/5.0 (Windows NT 10.0; Win64; x64; rv:134.0) Gecko/20100101 Firefox/134.0,,Firefox,134.0,Windows,10.0,https://app.prolific.com/,"en-US,en;q=0.5",6772aeebf2034af0ea4f5a63,678b1bdf6d0aefd65c71dcd2,678ea9b2d46dc84e86f4177d,,3141,"[""Example 2<br><br>You will watch Omnge Sort in action. Try to identify any patterns in the comparisons made by this method. <br><br>Press Enter to continue.""]",enter,,
,,,,,html-keyboard-response,58,267149,0.0-47.0,10,1,2025-01-20 19:53:42,8e5ef0ea70509e21e61f535100ed03ac,206.251.202.37,Mozilla/5.0 (Windows NT 10.0; Win64; x64; rv:134.0) Gecko/20100101 Firefox/134.0,,Firefox,134.0,Windows,10.0,https://app.prolific.com/,"en-US,en;q=0.5",6772aeebf2034af0ea4f5a63,678b1bdf6d0aefd65c71dcd2,678ea9b2d46dc84e86f4177d,,null,<img id='selected' src='G_5.jpg' height='90'> <img src='G_1.jpg' height='90'> <img src='G_6.jpg' height='90'> <img src='G_2.jpg' height='90'> <img src='G_7.jpg' height='90'> <img src='G_8.jpg' height='90'> <img src='G_3.jpg' height='90'> <img src='G_4.jpg' height='90'>,null,Animation1,
,,,,,html-keyboard-response,59,267667,0.0-48.0,10,1,2025-01-20 19:53:42,8e5ef0ea70509e21e61f535100ed03ac,206.251.202.37,Mozilla/5.0 (Windows NT 10.0; Win64; x64; rv:134.0) Gecko/20100101 Firefox/134.0,,Firefox,134.0,Windows,10.0,https://app.prolific.com/,"en-US,en;q=0.5",6772aeebf2034af0ea4f5a63,678b1bdf6d0aefd65c71dcd2,678ea9b2d46dc84e86f4177d,,null,<img id='selected' src='G_5.jpg' height='90'> <img id='selected' src='G_1.jpg' height='90'> <img src='G_6.jpg' height='90'> <img src='G_2.jpg' height='90'> <img src='G_7.jpg' height='90'> <img src='G_8.jpg' height='90'> <img src='G_3.jpg' height='90'> <img src='G_4.jpg' height='90'>,null,Animation1,
,,,,,html-keyboard-response,60,268197,0.0-49.0,10,1,2025-01-20 19:53:42,8e5ef0ea70509e21e61f535100ed03ac,206.251.202.37,Mozilla/5.0 (Windows NT 10.0; Win64; x64; rv:134.0) Gecko/20100101 Firefox/134.0,,Firefox,134.0,Windows,10.0,https://app.prolific.com/,"en-US,en;q=0.5",6772aeebf2034af0ea4f5a63,678b1bdf6d0aefd65c71dcd2,678ea9b2d46dc84e86f4177d,,null,<img id='selected' src='G_5.jpg' height='90'> <img id='selected' src='G_1.jpg' height='90'> <img src='G_6.jpg' height='90'> <img src='G_2.jpg' height='90'> <img src='G_7.jpg' height='90'> <img src='G_8.jpg' height='90'> <img src='G_3.jpg' height='90'> <img src='G_4.jpg' height='90'>,null,Animation1,
,,,,,html-keyboard-response,61,268520,0.0-50.0,10,1,2025-01-20 19:53:42,8e5ef0ea70509e21e61f535100ed03ac,206.251.202.37,Mozilla/5.0 (Windows NT 10.0; Win64; x64; rv:134.0) Gecko/20100101 Firefox/134.0,,Firefox,134.0,Windows,10.0,https://app.prolific.com/,"en-US,en;q=0.5",6772aeebf2034af0ea4f5a63,678b1bdf6d0aefd65c71dcd2,678ea9b2d46dc84e86f4177d,,null,<img  src='G_5.jpg' height='90'> <img  src='G_1.jpg' height='90'> <img src='G_6.jpg' height='90'> <img src='G_2.jpg' height='90'> <img src='G_7.jpg' height='90'> <img src='G_8.jpg' height='90'> <img src='G_3.jpg' height='90'> <img src='G_4.jpg' height='90'>,null,Animation1,
,,,,,html-keyboard-response,62,269036,0.0-51.0,10,1,2025-01-20 19:53:42,8e5ef0ea70509e21e61f535100ed03ac,206.251.202.37,Mozilla/5.0 (Windows NT 10.0; Win64; x64; rv:134.0) Gecko/20100101 Firefox/134.0,,Firefox,134.0,Windows,10.0,https://app.prolific.com/,"en-US,en;q=0.5",6772aeebf2034af0ea4f5a63,678b1bdf6d0aefd65c71dcd2,678ea9b2d46dc84e86f4177d,,null,<img  src='G_5.jpg' height='90'> <img id='selected'  src='G_1.jpg' height='90'> <img src='G_6.jpg' height='90'> <img src='G_2.jpg' height='90'> <img src='G_7.jpg' height='90'> <img src='G_8.jpg' height='90'> <img src='G_3.jpg' height='90'> <img src='G_4.jpg' height='90'>,null,Animation1,
,,,,,html-keyboard-response,63,269554,0.0-52.0,10,1,2025-01-20 19:53:42,8e5ef0ea70509e21e61f535100ed03ac,206.251.202.37,Mozilla/5.0 (Windows NT 10.0; Win64; x64; rv:134.0) Gecko/20100101 Firefox/134.0,,Firefox,134.0,Windows,10.0,https://app.prolific.com/,"en-US,en;q=0.5",6772aeebf2034af0ea4f5a63,678b1bdf6d0aefd65c71dcd2,678ea9b2d46dc84e86f4177d,,null,<img  src='G_5.jpg' height='90'> <img id='selected'  src='G_1.jpg' height='90'> <img id='selected' src='G_6.jpg' height='90'> <img src='G_2.jpg' height='90'> <img src='G_7.jpg' height='90'> <img src='G_8.jpg' height='90'> <img src='G_3.jpg' height='90'> <img src='G_4.jpg' height='90'>,null,Animation1,
,,,,,html-keyboard-response,64,270070,0.0-53.0,10,1,2025-01-20 19:53:42,8e5ef0ea70509e21e61f535100ed03ac,206.251.202.37,Mozilla/5.0 (Windows NT 10.0; Win64; x64; rv:134.0) Gecko/20100101 Firefox/134.0,,Firefox,134.0,Windows,10.0,https://app.prolific.com/,"en-US,en;q=0.5",6772aeebf2034af0ea4f5a63,678b1bdf6d0aefd65c71dcd2,678ea9b2d46dc84e86f4177d,,null,<img  src='G_5.jpg' height='90'> <img id='swapped' src='G_6.jpg' height='90'> <img id='swapped'  src='G_1.jpg' height='90'> <img src='G_2.jpg' height='90'> <img src='G_7.jpg' height='90'> <img src='G_8.jpg' height='90'> <img src='G_3.jpg' height='90'> <img src='G_4.jpg' height='90'>,null,Animation1,
,,,,,html-keyboard-response,65,270392,0.0-54.0,10,1,2025-01-20 19:53:42,8e5ef0ea70509e21e61f535100ed03ac,206.251.202.37,Mozilla/5.0 (Windows NT 10.0; Win64; x64; rv:134.0) Gecko/20100101 Firefox/134.0,,Firefox,134.0,Windows,10.0,https://app.prolific.com/,"en-US,en;q=0.5",6772aeebf2034af0ea4f5a63,678b1bdf6d0aefd65c71dcd2,678ea9b2d46dc84e86f4177d,,null,<img  src='G_5.jpg' height='90'> <img  src='G_6.jpg' height='90'> <img   src='G_1.jpg' height='90'> <img src='G_2.jpg' height='90'> <img src='G_7.jpg' height='90'> <img src='G_8.jpg' height='90'> <img src='G_3.jpg' height='90'> <img src='G_4.jpg' height='90'>,null,Animation1,
,,,,,html-keyboard-response,66,270908,0.0-55.0,10,1,2025-01-20 19:53:42,8e5ef0ea70509e21e61f535100ed03ac,206.251.202.37,Mozilla/5.0 (Windows NT 10.0; Win64; x64; rv:134.0) Gecko/20100101 Firefox/134.0,,Firefox,134.0,Windows,10.0,https://app.prolific.com/,"en-US,en;q=0.5",6772aeebf2034af0ea4f5a63,678b1bdf6d0aefd65c71dcd2,678ea9b2d46dc84e86f4177d,,null,<img id='selected'  src='G_5.jpg' height='90'> <img  src='G_6.jpg' height='90'> <img   src='G_1.jpg' height='90'> <img src='G_2.jpg' height='90'> <img src='G_7.jpg' height='90'> <img src='G_8.jpg' height='90'> <img src='G_3.jpg' height='90'> <img src='G_4.jpg' height='90'>,null,Animation1,
,,,,,html-keyboard-response,67,271429,0.0-56.0,10,1,2025-01-20 19:53:42,8e5ef0ea70509e21e61f535100ed03ac,206.251.202.37,Mozilla/5.0 (Windows NT 10.0; Win64; x64; rv:134.0) Gecko/20100101 Firefox/134.0,,Firefox,134.0,Windows,10.0,https://app.prolific.com/,"en-US,en;q=0.5",6772aeebf2034af0ea4f5a63,678b1bdf6d0aefd65c71dcd2,678ea9b2d46dc84e86f4177d,,null,<img id='selected'  src='G_5.jpg' height='90'> <img id='selected'  src='G_6.jpg' height='90'> <img   src='G_1.jpg' height='90'> <img src='G_2.jpg' height='90'> <img src='G_7.jpg' height='90'> <img src='G_8.jpg' height='90'> <img src='G_3.jpg' height='90'> <img src='G_4.jpg' height='90'>,null,Animation1,
,,,,,html-keyboard-response,68,271946,0.0-57.0,10,1,2025-01-20 19:53:42,8e5ef0ea70509e21e61f535100ed03ac,206.251.202.37,Mozilla/5.0 (Windows NT 10.0; Win64; x64; rv:134.0) Gecko/20100101 Firefox/134.0,,Firefox,134.0,Windows,10.0,https://app.prolific.com/,"en-US,en;q=0.5",6772aeebf2034af0ea4f5a63,678b1bdf6d0aefd65c71dcd2,678ea9b2d46dc84e86f4177d,,null,<img id='swapped'  src='G_6.jpg' height='90'> <img id='swapped'  src='G_5.jpg' height='90'> <img   src='G_1.jpg' height='90'> <img src='G_2.jpg' height='90'> <img src='G_7.jpg' height='90'> <img src='G_8.jpg' height='90'> <img src='G_3.jpg' height='90'> <img src='G_4.jpg' height='90'>,null,Animation1,
,,,,,html-keyboard-response,69,272267,0.0-58.0,10,1,2025-01-20 19:53:42,8e5ef0ea70509e21e61f535100ed03ac,206.251.202.37,Mozilla/5.0 (Windows NT 10.0; Win64; x64; rv:134.0) Gecko/20100101 Firefox/134.0,,Firefox,134.0,Windows,10.0,https://app.prolific.com/,"en-US,en;q=0.5",6772aeebf2034af0ea4f5a63,678b1bdf6d0aefd65c71dcd2,678ea9b2d46dc84e86f4177d,,null,<img   src='G_6.jpg' height='90'> <img   src='G_5.jpg' height='90'> <img   src='G_1.jpg' height='90'> <img src='G_2.jpg' height='90'> <img src='G_7.jpg' height='90'> <img src='G_8.jpg' height='90'> <img src='G_3.jpg' height='90'> <img src='G_4.jpg' height='90'>,null,Animation1,
,,,,,html-keyboard-response,70,272784,0.0-59.0,10,1,2025-01-20 19:53:42,8e5ef0ea70509e21e61f535100ed03ac,206.251.202.37,Mozilla/5.0 (Windows NT 10.0; Win64; x64; rv:134.0) Gecko/20100101 Firefox/134.0,,Firefox,134.0,Windows,10.0,https://app.prolific.com/,"en-US,en;q=0.5",6772aeebf2034af0ea4f5a63,678b1bdf6d0aefd65c71dcd2,678ea9b2d46dc84e86f4177d,,null,<img   src='G_6.jpg' height='90'> <img   src='G_5.jpg' height='90'> <img id='selected'   src='G_1.jpg' height='90'> <img src='G_2.jpg' height='90'> <img src='G_7.jpg' height='90'> <img src='G_8.jpg' height='90'> <img src='G_3.jpg' height='90'> <img src='G_4.jpg' height='90'>,null,Animation1,
,,,,,html-keyboard-response,71,273302,0.0-60.0,10,1,2025-01-20 19:53:42,8e5ef0ea70509e21e61f535100ed03ac,206.251.202.37,Mozilla/5.0 (Windows NT 10.0; Win64; x64; rv:134.0) Gecko/20100101 Firefox/134.0,,Firefox,134.0,Windows,10.0,https://app.prolific.com/,"en-US,en;q=0.5",6772aeebf2034af0ea4f5a63,678b1bdf6d0aefd65c71dcd2,678ea9b2d46dc84e86f4177d,,null,<img   src='G_6.jpg' height='90'> <img   src='G_5.jpg' height='90'> <img id='selected'   src='G_1.jpg' height='90'> <img id='selected' src='G_2.jpg' height='90'> <img src='G_7.jpg' height='90'> <img src='G_8.jpg' height='90'> <img src='G_3.jpg' height='90'> <img src='G_4.jpg' height='90'>,null,Animation1,
,,,,,html-keyboard-response,72,273818,0.0-61.0,10,1,2025-01-20 19:53:42,8e5ef0ea70509e21e61f535100ed03ac,206.251.202.37,Mozilla/5.0 (Windows NT 10.0; Win64; x64; rv:134.0) Gecko/20100101 Firefox/134.0,,Firefox,134.0,Windows,10.0,https://app.prolific.com/,"en-US,en;q=0.5",6772aeebf2034af0ea4f5a63,678b1bdf6d0aefd65c71dcd2,678ea9b2d46dc84e86f4177d,,null,<img   src='G_6.jpg' height='90'> <img   src='G_5.jpg' height='90'> <img id='swapped' src='G_2.jpg' height='90'> <img id='swapped'   src='G_1.jpg' height='90'> <img src='G_7.jpg' height='90'> <img src='G_8.jpg' height='90'> <img src='G_3.jpg' height='90'> <img src='G_4.jpg' height='90'>,null,Animation1,
,,,,,html-keyboard-response,73,274135,0.0-62.0,10,1,2025-01-20 19:53:42,8e5ef0ea70509e21e61f535100ed03ac,206.251.202.37,Mozilla/5.0 (Windows NT 10.0; Win64; x64; rv:134.0) Gecko/20100101 Firefox/134.0,,Firefox,134.0,Windows,10.0,https://app.prolific.com/,"en-US,en;q=0.5",6772aeebf2034af0ea4f5a63,678b1bdf6d0aefd65c71dcd2,678ea9b2d46dc84e86f4177d,,null,<img   src='G_6.jpg' height='90'> <img   src='G_5.jpg' height='90'> <img  src='G_2.jpg' height='90'> <img    src='G_1.jpg' height='90'> <img src='G_7.jpg' height='90'> <img src='G_8.jpg' height='90'> <img src='G_3.jpg' height='90'> <img src='G_4.jpg' height='90'>,null,Animation1,
,,,,,html-keyboard-response,74,274674,0.0-63.0,10,1,2025-01-20 19:53:42,8e5ef0ea70509e21e61f535100ed03ac,206.251.202.37,Mozilla/5.0 (Windows NT 10.0; Win64; x64; rv:134.0) Gecko/20100101 Firefox/134.0,,Firefox,134.0,Windows,10.0,https://app.prolific.com/,"en-US,en;q=0.5",6772aeebf2034af0ea4f5a63,678b1bdf6d0aefd65c71dcd2,678ea9b2d46dc84e86f4177d,,null,<img   src='G_6.jpg' height='90'> <img id='selected'   src='G_5.jpg' height='90'> <img  src='G_2.jpg' height='90'> <img    src='G_1.jpg' height='90'> <img src='G_7.jpg' height='90'> <img src='G_8.jpg' height='90'> <img src='G_3.jpg' height='90'> <img src='G_4.jpg' height='90'>,null,Animation1,
,,,,,html-keyboard-response,75,275190,0.0-64.0,10,1,2025-01-20 19:53:42,8e5ef0ea70509e21e61f535100ed03ac,206.251.202.37,Mozilla/5.0 (Windows NT 10.0; Win64; x64; rv:134.0) Gecko/20100101 Firefox/134.0,,Firefox,134.0,Windows,10.0,https://app.prolific.com/,"en-US,en;q=0.5",6772aeebf2034af0ea4f5a63,678b1bdf6d0aefd65c71dcd2,678ea9b2d46dc84e86f4177d,,null,<img   src='G_6.jpg' height='90'> <img id='selected'   src='G_5.jpg' height='90'> <img id='selected'  src='G_2.jpg' height='90'> <img    src='G_1.jpg' height='90'> <img src='G_7.jpg' height='90'> <img src='G_8.jpg' height='90'> <img src='G_3.jpg' height='90'> <img src='G_4.jpg' height='90'>,null,Animation1,
,,,,,html-keyboard-response,76,275707,0.0-65.0,10,1,2025-01-20 19:53:42,8e5ef0ea70509e21e61f535100ed03ac,206.251.202.37,Mozilla/5.0 (Windows NT 10.0; Win64; x64; rv:134.0) Gecko/20100101 Firefox/134.0,,Firefox,134.0,Windows,10.0,https://app.prolific.com/,"en-US,en;q=0.5",6772aeebf2034af0ea4f5a63,678b1bdf6d0aefd65c71dcd2,678ea9b2d46dc84e86f4177d,,null,<img   src='G_6.jpg' height='90'> <img id='swapped'  src='G_2.jpg' height='90'> <img id='swapped'   src='G_5.jpg' height='90'> <img    src='G_1.jpg' height='90'> <img src='G_7.jpg' height='90'> <img src='G_8.jpg' height='90'> <img src='G_3.jpg' height='90'> <img src='G_4.jpg' height='90'>,null,Animation1,
,,,,,html-keyboard-response,77,276038,0.0-66.0,10,1,2025-01-20 19:53:42,8e5ef0ea70509e21e61f535100ed03ac,206.251.202.37,Mozilla/5.0 (Windows NT 10.0; Win64; x64; rv:134.0) Gecko/20100101 Firefox/134.0,,Firefox,134.0,Windows,10.0,https://app.prolific.com/,"en-US,en;q=0.5",6772aeebf2034af0ea4f5a63,678b1bdf6d0aefd65c71dcd2,678ea9b2d46dc84e86f4177d,,null,<img   src='G_6.jpg' height='90'> <img   src='G_2.jpg' height='90'> <img    src='G_5.jpg' height='90'> <img    src='G_1.jpg' height='90'> <img src='G_7.jpg' height='90'> <img src='G_8.jpg' height='90'> <img src='G_3.jpg' height='90'> <img src='G_4.jpg' height='90'>,null,Animation1,
,,,,,html-keyboard-response,78,276578,0.0-67.0,10,1,2025-01-20 19:53:42,8e5ef0ea70509e21e61f535100ed03ac,206.251.202.37,Mozilla/5.0 (Windows NT 10.0; Win64; x64; rv:134.0) Gecko/20100101 Firefox/134.0,,Firefox,134.0,Windows,10.0,https://app.prolific.com/,"en-US,en;q=0.5",6772aeebf2034af0ea4f5a63,678b1bdf6d0aefd65c71dcd2,678ea9b2d46dc84e86f4177d,,null,<img id='selected'   src='G_6.jpg' height='90'> <img   src='G_2.jpg' height='90'> <img    src='G_5.jpg' height='90'> <img    src='G_1.jpg' height='90'> <img src='G_7.jpg' height='90'> <img src='G_8.jpg' height='90'> <img src='G_3.jpg' height='90'> <img src='G_4.jpg' height='90'>,null,Animation1,
,,,,,html-keyboard-response,79,277108,0.0-68.0,10,1,2025-01-20 19:53:42,8e5ef0ea70509e21e61f535100ed03ac,206.251.202.37,Mozilla/5.0 (Windows NT 10.0; Win64; x64; rv:134.0) Gecko/20100101 Firefox/134.0,,Firefox,134.0,Windows,10.0,https://app.prolific.com/,"en-US,en;q=0.5",6772aeebf2034af0ea4f5a63,678b1bdf6d0aefd65c71dcd2,678ea9b2d46dc84e86f4177d,,null,<img id='selected'   src='G_6.jpg' height='90'> <img id='selected'   src='G_2.jpg' height='90'> <img    src='G_5.jpg' height='90'> <img    src='G_1.jpg' height='90'> <img src='G_7.jpg' height='90'> <img src='G_8.jpg' height='90'> <img src='G_3.jpg' height='90'> <img src='G_4.jpg' height='90'>,null,Animation1,
,,,,,html-keyboard-response,80,277640,0.0-69.0,10,1,2025-01-20 19:53:42,8e5ef0ea70509e21e61f535100ed03ac,206.251.202.37,Mozilla/5.0 (Windows NT 10.0; Win64; x64; rv:134.0) Gecko/20100101 Firefox/134.0,,Firefox,134.0,Windows,10.0,https://app.prolific.com/,"en-US,en;q=0.5",6772aeebf2034af0ea4f5a63,678b1bdf6d0aefd65c71dcd2,678ea9b2d46dc84e86f4177d,,null,<img id='swapped'   src='G_2.jpg' height='90'> <img id='swapped'   src='G_6.jpg' height='90'> <img    src='G_5.jpg' height='90'> <img    src='G_1.jpg' height='90'> <img src='G_7.jpg' height='90'> <img src='G_8.jpg' height='90'> <img src='G_3.jpg' height='90'> <img src='G_4.jpg' height='90'>,null,Animation1,
,,,,,html-keyboard-response,81,277978,0.0-70.0,10,1,2025-01-20 19:53:42,8e5ef0ea70509e21e61f535100ed03ac,206.251.202.37,Mozilla/5.0 (Windows NT 10.0; Win64; x64; rv:134.0) Gecko/20100101 Firefox/134.0,,Firefox,134.0,Windows,10.0,https://app.prolific.com/,"en-US,en;q=0.5",6772aeebf2034af0ea4f5a63,678b1bdf6d0aefd65c71dcd2,678ea9b2d46dc84e86f4177d,,null,<img    src='G_2.jpg' height='90'> <img    src='G_6.jpg' height='90'> <img    src='G_5.jpg' height='90'> <img    src='G_1.jpg' height='90'> <img src='G_7.jpg' height='90'> <img src='G_8.jpg' height='90'> <img src='G_3.jpg' height='90'> <img src='G_4.jpg' height='90'>,null,Animation1,
,,,,,html-keyboard-response,82,278511,0.0-71.0,10,1,2025-01-20 19:53:42,8e5ef0ea70509e21e61f535100ed03ac,206.251.202.37,Mozilla/5.0 (Windows NT 10.0; Win64; x64; rv:134.0) Gecko/20100101 Firefox/134.0,,Firefox,134.0,Windows,10.0,https://app.prolific.com/,"en-US,en;q=0.5",6772aeebf2034af0ea4f5a63,678b1bdf6d0aefd65c71dcd2,678ea9b2d46dc84e86f4177d,,null,<img    src='G_2.jpg' height='90'> <img    src='G_6.jpg' height='90'> <img    src='G_5.jpg' height='90'> <img id='selected'    src='G_1.jpg' height='90'> <img src='G_7.jpg' height='90'> <img src='G_8.jpg' height='90'> <img src='G_3.jpg' height='90'> <img src='G_4.jpg' height='90'>,null,Animation1,
,,,,,html-keyboard-response,83,279044,0.0-72.0,10,1,2025-01-20 19:53:42,8e5ef0ea70509e21e61f535100ed03ac,206.251.202.37,Mozilla/5.0 (Windows NT 10.0; Win64; x64; rv:134.0) Gecko/20100101 Firefox/134.0,,Firefox,134.0,Windows,10.0,https://app.prolific.com/,"en-US,en;q=0.5",6772aeebf2034af0ea4f5a63,678b1bdf6d0aefd65c71dcd2,678ea9b2d46dc84e86f4177d,,null,<img    src='G_2.jpg' height='90'> <img    src='G_6.jpg' height='90'> <img    src='G_5.jpg' height='90'> <img id='selected'    src='G_1.jpg' height='90'> <img id='selected' src='G_7.jpg' height='90'> <img src='G_8.jpg' height='90'> <img src='G_3.jpg' height='90'> <img src='G_4.jpg' height='90'>,null,Animation1,
,,,,,html-keyboard-response,84,279583,0.0-73.0,10,1,2025-01-20 19:53:42,8e5ef0ea70509e21e61f535100ed03ac,206.251.202.37,Mozilla/5.0 (Windows NT 10.0; Win64; x64; rv:134.0) Gecko/20100101 Firefox/134.0,,Firefox,134.0,Windows,10.0,https://app.prolific.com/,"en-US,en;q=0.5",6772aeebf2034af0ea4f5a63,678b1bdf6d0aefd65c71dcd2,678ea9b2d46dc84e86f4177d,,null,<img    src='G_2.jpg' height='90'> <img    src='G_6.jpg' height='90'> <img    src='G_5.jpg' height='90'> <img id='swapped' src='G_7.jpg' height='90'> <img id='swapped'    src='G_1.jpg' height='90'> <img src='G_8.jpg' height='90'> <img src='G_3.jpg' height='90'> <img src='G_4.jpg' height='90'>,null,Animation1,
,,,,,html-keyboard-response,85,279915,0.0-74.0,10,1,2025-01-20 19:53:42,8e5ef0ea70509e21e61f535100ed03ac,206.251.202.37,Mozilla/5.0 (Windows NT 10.0; Win64; x64; rv:134.0) Gecko/20100101 Firefox/134.0,,Firefox,134.0,Windows,10.0,https://app.prolific.com/,"en-US,en;q=0.5",6772aeebf2034af0ea4f5a63,678b1bdf6d0aefd65c71dcd2,678ea9b2d46dc84e86f4177d,,null,<img    src='G_2.jpg' height='90'> <img    src='G_6.jpg' height='90'> <img    src='G_5.jpg' height='90'> <img  src='G_7.jpg' height='90'> <img     src='G_1.jpg' height='90'> <img src='G_8.jpg' height='90'> <img src='G_3.jpg' height='90'> <img src='G_4.jpg' height='90'>,null,Animation1,
,,,,,html-keyboard-response,86,280448,0.0-75.0,10,1,2025-01-20 19:53:42,8e5ef0ea70509e21e61f535100ed03ac,206.251.202.37,Mozilla/5.0 (Windows NT 10.0; Win64; x64; rv:134.0) Gecko/20100101 Firefox/134.0,,Firefox,134.0,Windows,10.0,https://app.prolific.com/,"en-US,en;q=0.5",6772aeebf2034af0ea4f5a63,678b1bdf6d0aefd65c71dcd2,678ea9b2d46dc84e86f4177d,,null,<img    src='G_2.jpg' height='90'> <img    src='G_6.jpg' height='90'> <img id='selected'    src='G_5.jpg' height='90'> <img  src='G_7.jpg' height='90'> <img     src='G_1.jpg' height='90'> <img src='G_8.jpg' height='90'> <img src='G_3.jpg' height='90'> <img src='G_4.jpg' height='90'>,null,Animation1,
,,,,,html-keyboard-response,87,280986,0.0-76.0,10,1,2025-01-20 19:53:42,8e5ef0ea70509e21e61f535100ed03ac,206.251.202.37,Mozilla/5.0 (Windows NT 10.0; Win64; x64; rv:134.0) Gecko/20100101 Firefox/134.0,,Firefox,134.0,Windows,10.0,https://app.prolific.com/,"en-US,en;q=0.5",6772aeebf2034af0ea4f5a63,678b1bdf6d0aefd65c71dcd2,678ea9b2d46dc84e86f4177d,,null,<img    src='G_2.jpg' height='90'> <img    src='G_6.jpg' height='90'> <img id='selected'    src='G_5.jpg' height='90'> <img id='selected'  src='G_7.jpg' height='90'> <img     src='G_1.jpg' height='90'> <img src='G_8.jpg' height='90'> <img src='G_3.jpg' height='90'> <img src='G_4.jpg' height='90'>,null,Animation1,
,,,,,html-keyboard-response,88,281519,0.0-77.0,10,1,2025-01-20 19:53:42,8e5ef0ea70509e21e61f535100ed03ac,206.251.202.37,Mozilla/5.0 (Windows NT 10.0; Win64; x64; rv:134.0) Gecko/20100101 Firefox/134.0,,Firefox,134.0,Windows,10.0,https://app.prolific.com/,"en-US,en;q=0.5",6772aeebf2034af0ea4f5a63,678b1bdf6d0aefd65c71dcd2,678ea9b2d46dc84e86f4177d,,null,<img    src='G_2.jpg' height='90'> <img    src='G_6.jpg' height='90'> <img id='swapped'  src='G_7.jpg' height='90'> <img id='swapped'    src='G_5.jpg' height='90'> <img     src='G_1.jpg' height='90'> <img src='G_8.jpg' height='90'> <img src='G_3.jpg' height='90'> <img src='G_4.jpg' height='90'>,null,Animation1,
,,,,,html-keyboard-response,89,281850,0.0-78.0,10,1,2025-01-20 19:53:42,8e5ef0ea70509e21e61f535100ed03ac,206.251.202.37,Mozilla/5.0 (Windows NT 10.0; Win64; x64; rv:134.0) Gecko/20100101 Firefox/134.0,,Firefox,134.0,Windows,10.0,https://app.prolific.com/,"en-US,en;q=0.5",6772aeebf2034af0ea4f5a63,678b1bdf6d0aefd65c71dcd2,678ea9b2d46dc84e86f4177d,,null,<img    src='G_2.jpg' height='90'> <img    src='G_6.jpg' height='90'> <img   src='G_7.jpg' height='90'> <img     src='G_5.jpg' height='90'> <img     src='G_1.jpg' height='90'> <img src='G_8.jpg' height='90'> <img src='G_3.jpg' height='90'> <img src='G_4.jpg' height='90'>,null,Animation1,
,,,,,html-keyboard-response,90,282389,0.0-79.0,10,1,2025-01-20 19:53:42,8e5ef0ea70509e21e61f535100ed03ac,206.251.202.37,Mozilla/5.0 (Windows NT 10.0; Win64; x64; rv:134.0) Gecko/20100101 Firefox/134.0,,Firefox,134.0,Windows,10.0,https://app.prolific.com/,"en-US,en;q=0.5",6772aeebf2034af0ea4f5a63,678b1bdf6d0aefd65c71dcd2,678ea9b2d46dc84e86f4177d,,null,<img    src='G_2.jpg' height='90'> <img id='selected'    src='G_6.jpg' height='90'> <img   src='G_7.jpg' height='90'> <img     src='G_5.jpg' height='90'> <img     src='G_1.jpg' height='90'> <img src='G_8.jpg' height='90'> <img src='G_3.jpg' height='90'> <img src='G_4.jpg' height='90'>,null,Animation1,
,,,,,html-keyboard-response,91,282920,0.0-80.0,10,1,2025-01-20 19:53:42,8e5ef0ea70509e21e61f535100ed03ac,206.251.202.37,Mozilla/5.0 (Windows NT 10.0; Win64; x64; rv:134.0) Gecko/20100101 Firefox/134.0,,Firefox,134.0,Windows,10.0,https://app.prolific.com/,"en-US,en;q=0.5",6772aeebf2034af0ea4f5a63,678b1bdf6d0aefd65c71dcd2,678ea9b2d46dc84e86f4177d,,null,<img    src='G_2.jpg' height='90'> <img id='selected'    src='G_6.jpg' height='90'> <img id='selected'   src='G_7.jpg' height='90'> <img     src='G_5.jpg' height='90'> <img     src='G_1.jpg' height='90'> <img src='G_8.jpg' height='90'> <img src='G_3.jpg' height='90'> <img src='G_4.jpg' height='90'>,null,Animation1,
,,,,,html-keyboard-response,92,283453,0.0-81.0,10,1,2025-01-20 19:53:42,8e5ef0ea70509e21e61f535100ed03ac,206.251.202.37,Mozilla/5.0 (Windows NT 10.0; Win64; x64; rv:134.0) Gecko/20100101 Firefox/134.0,,Firefox,134.0,Windows,10.0,https://app.prolific.com/,"en-US,en;q=0.5",6772aeebf2034af0ea4f5a63,678b1bdf6d0aefd65c71dcd2,678ea9b2d46dc84e86f4177d,,null,<img    src='G_2.jpg' height='90'> <img id='swapped'   src='G_7.jpg' height='90'> <img id='swapped'    src='G_6.jpg' height='90'> <img     src='G_5.jpg' height='90'> <img     src='G_1.jpg' height='90'> <img src='G_8.jpg' height='90'> <img src='G_3.jpg' height='90'> <img src='G_4.jpg' height='90'>,null,Animation1,
,,,,,html-keyboard-response,93,283793,0.0-82.0,10,1,2025-01-20 19:53:42,8e5ef0ea70509e21e61f535100ed03ac,206.251.202.37,Mozilla/5.0 (Windows NT 10.0; Win64; x64; rv:134.0) Gecko/20100101 Firefox/134.0,,Firefox,134.0,Windows,10.0,https://app.prolific.com/,"en-US,en;q=0.5",6772aeebf2034af0ea4f5a63,678b1bdf6d0aefd65c71dcd2,678ea9b2d46dc84e86f4177d,,null,<img    src='G_2.jpg' height='90'> <img    src='G_7.jpg' height='90'> <img     src='G_6.jpg' height='90'> <img     src='G_5.jpg' height='90'> <img     src='G_1.jpg' height='90'> <img src='G_8.jpg' height='90'> <img src='G_3.jpg' height='90'> <img src='G_4.jpg' height='90'>,null,Animation1,
,,,,,html-keyboard-response,94,284322,0.0-83.0,10,1,2025-01-20 19:53:42,8e5ef0ea70509e21e61f535100ed03ac,206.251.202.37,Mozilla/5.0 (Windows NT 10.0; Win64; x64; rv:134.0) Gecko/20100101 Firefox/134.0,,Firefox,134.0,Windows,10.0,https://app.prolific.com/,"en-US,en;q=0.5",6772aeebf2034af0ea4f5a63,678b1bdf6d0aefd65c71dcd2,678ea9b2d46dc84e86f4177d,,null,<img id='selected'    src='G_2.jpg' height='90'> <img    src='G_7.jpg' height='90'> <img     src='G_6.jpg' height='90'> <img     src='G_5.jpg' height='90'> <img     src='G_1.jpg' height='90'> <img src='G_8.jpg' height='90'> <img src='G_3.jpg' height='90'> <img src='G_4.jpg' height='90'>,null,Animation1,
,,,,,html-keyboard-response,95,284840,0.0-84.0,10,1,2025-01-20 19:53:42,8e5ef0ea70509e21e61f535100ed03ac,206.251.202.37,Mozilla/5.0 (Windows NT 10.0; Win64; x64; rv:134.0) Gecko/20100101 Firefox/134.0,,Firefox,134.0,Windows,10.0,https://app.prolific.com/,"en-US,en;q=0.5",6772aeebf2034af0ea4f5a63,678b1bdf6d0aefd65c71dcd2,678ea9b2d46dc84e86f4177d,,null,<img id='selected'    src='G_2.jpg' height='90'> <img id='selected'    src='G_7.jpg' height='90'> <img     src='G_6.jpg' height='90'> <img     src='G_5.jpg' height='90'> <img     src='G_1.jpg' height='90'> <img src='G_8.jpg' height='90'> <img src='G_3.jpg' height='90'> <img src='G_4.jpg' height='90'>,null,Animation1,
,,,,,html-keyboard-response,96,285371,0.0-85.0,10,1,2025-01-20 19:53:42,8e5ef0ea70509e21e61f535100ed03ac,206.251.202.37,Mozilla/5.0 (Windows NT 10.0; Win64; x64; rv:134.0) Gecko/20100101 Firefox/134.0,,Firefox,134.0,Windows,10.0,https://app.prolific.com/,"en-US,en;q=0.5",6772aeebf2034af0ea4f5a63,678b1bdf6d0aefd65c71dcd2,678ea9b2d46dc84e86f4177d,,null,<img id='selected'    src='G_2.jpg' height='90'> <img id='selected'    src='G_7.jpg' height='90'> <img     src='G_6.jpg' height='90'> <img     src='G_5.jpg' height='90'> <img     src='G_1.jpg' height='90'> <img src='G_8.jpg' height='90'> <img src='G_3.jpg' height='90'> <img src='G_4.jpg' height='90'>,null,Animation1,
,,,,,html-keyboard-response,97,285694,0.0-86.0,10,1,2025-01-20 19:53:42,8e5ef0ea70509e21e61f535100ed03ac,206.251.202.37,Mozilla/5.0 (Windows NT 10.0; Win64; x64; rv:134.0) Gecko/20100101 Firefox/134.0,,Firefox,134.0,Windows,10.0,https://app.prolific.com/,"en-US,en;q=0.5",6772aeebf2034af0ea4f5a63,678b1bdf6d0aefd65c71dcd2,678ea9b2d46dc84e86f4177d,,null,<img     src='G_2.jpg' height='90'> <img     src='G_7.jpg' height='90'> <img     src='G_6.jpg' height='90'> <img     src='G_5.jpg' height='90'> <img     src='G_1.jpg' height='90'> <img src='G_8.jpg' height='90'> <img src='G_3.jpg' height='90'> <img src='G_4.jpg' height='90'>,null,Animation1,
,,,,,html-keyboard-response,98,286226,0.0-87.0,10,1,2025-01-20 19:53:42,8e5ef0ea70509e21e61f535100ed03ac,206.251.202.37,Mozilla/5.0 (Windows NT 10.0; Win64; x64; rv:134.0) Gecko/20100101 Firefox/134.0,,Firefox,134.0,Windows,10.0,https://app.prolific.com/,"en-US,en;q=0.5",6772aeebf2034af0ea4f5a63,678b1bdf6d0aefd65c71dcd2,678ea9b2d46dc84e86f4177d,,null,<img     src='G_2.jpg' height='90'> <img     src='G_7.jpg' height='90'> <img     src='G_6.jpg' height='90'> <img     src='G_5.jpg' height='90'> <img id='selected'     src='G_1.jpg' height='90'> <img src='G_8.jpg' height='90'> <img src='G_3.jpg' height='90'> <img src='G_4.jpg' height='90'>,null,Animation1,
,,,,,html-keyboard-response,99,286758,0.0-88.0,10,1,2025-01-20 19:53:42,8e5ef0ea70509e21e61f535100ed03ac,206.251.202.37,Mozilla/5.0 (Windows NT 10.0; Win64; x64; rv:134.0) Gecko/20100101 Firefox/134.0,,Firefox,134.0,Windows,10.0,https://app.prolific.com/,"en-US,en;q=0.5",6772aeebf2034af0ea4f5a63,678b1bdf6d0aefd65c71dcd2,678ea9b2d46dc84e86f4177d,,null,<img     src='G_2.jpg' height='90'> <img     src='G_7.jpg' height='90'> <img     src='G_6.jpg' height='90'> <img     src='G_5.jpg' height='90'> <img id='selected'     src='G_1.jpg' height='90'> <img id='selected' src='G_8.jpg' height='90'> <img src='G_3.jpg' height='90'> <img src='G_4.jpg' height='90'>,null,Animation1,
,,,,,html-keyboard-response,100,287300,0.0-89.0,10,1,2025-01-20 19:53:42,8e5ef0ea70509e21e61f535100ed03ac,206.251.202.37,Mozilla/5.0 (Windows NT 10.0; Win64; x64; rv:134.0) Gecko/20100101 Firefox/134.0,,Firefox,134.0,Windows,10.0,https://app.prolific.com/,"en-US,en;q=0.5",6772aeebf2034af0ea4f5a63,678b1bdf6d0aefd65c71dcd2,678ea9b2d46dc84e86f4177d,,null,<img     src='G_2.jpg' height='90'> <img     src='G_7.jpg' height='90'> <img     src='G_6.jpg' height='90'> <img     src='G_5.jpg' height='90'> <img id='swapped' src='G_8.jpg' height='90'> <img id='swapped'     src='G_1.jpg' height='90'> <img src='G_3.jpg' height='90'> <img src='G_4.jpg' height='90'>,null,Animation1,
,,,,,html-keyboard-response,101,287629,0.0-90.0,10,1,2025-01-20 19:53:42,8e5ef0ea70509e21e61f535100ed03ac,206.251.202.37,Mozilla/5.0 (Windows NT 10.0; Win64; x64; rv:134.0) Gecko/20100101 Firefox/134.0,,Firefox,134.0,Windows,10.0,https://app.prolific.com/,"en-US,en;q=0.5",6772aeebf2034af0ea4f5a63,678b1bdf6d0aefd65c71dcd2,678ea9b2d46dc84e86f4177d,,null,<img     src='G_2.jpg' height='90'> <img     src='G_7.jpg' height='90'> <img     src='G_6.jpg' height='90'> <img     src='G_5.jpg' height='90'> <img  src='G_8.jpg' height='90'> <img      src='G_1.jpg' height='90'> <img src='G_3.jpg' height='90'> <img src='G_4.jpg' height='90'>,null,Animation1,
,,,,,html-keyboard-response,102,288176,0.0-91.0,10,1,2025-01-20 19:53:42,8e5ef0ea70509e21e61f535100ed03ac,206.251.202.37,Mozilla/5.0 (Windows NT 10.0; Win64; x64; rv:134.0) Gecko/20100101 Firefox/134.0,,Firefox,134.0,Windows,10.0,https://app.prolific.com/,"en-US,en;q=0.5",6772aeebf2034af0ea4f5a63,678b1bdf6d0aefd65c71dcd2,678ea9b2d46dc84e86f4177d,,null,<img     src='G_2.jpg' height='90'> <img     src='G_7.jpg' height='90'> <img     src='G_6.jpg' height='90'> <img id='selected'     src='G_5.jpg' height='90'> <img  src='G_8.jpg' height='90'> <img      src='G_1.jpg' height='90'> <img src='G_3.jpg' height='90'> <img src='G_4.jpg' height='90'>,null,Animation1,
,,,,,html-keyboard-response,103,288698,0.0-92.0,10,1,2025-01-20 19:53:42,8e5ef0ea70509e21e61f535100ed03ac,206.251.202.37,Mozilla/5.0 (Windows NT 10.0; Win64; x64; rv:134.0) Gecko/20100101 Firefox/134.0,,Firefox,134.0,Windows,10.0,https://app.prolific.com/,"en-US,en;q=0.5",6772aeebf2034af0ea4f5a63,678b1bdf6d0aefd65c71dcd2,678ea9b2d46dc84e86f4177d,,null,<img     src='G_2.jpg' height='90'> <img     src='G_7.jpg' height='90'> <img     src='G_6.jpg' height='90'> <img id='selected'     src='G_5.jpg' height='90'> <img id='selected'  src='G_8.jpg' height='90'> <img      src='G_1.jpg' height='90'> <img src='G_3.jpg' height='90'> <img src='G_4.jpg' height='90'>,null,Animation1,
,,,,,html-keyboard-response,104,289215,0.0-93.0,10,1,2025-01-20 19:53:42,8e5ef0ea70509e21e61f535100ed03ac,206.251.202.37,Mozilla/5.0 (Windows NT 10.0; Win64; x64; rv:134.0) Gecko/20100101 Firefox/134.0,,Firefox,134.0,Windows,10.0,https://app.prolific.com/,"en-US,en;q=0.5",6772aeebf2034af0ea4f5a63,678b1bdf6d0aefd65c71dcd2,678ea9b2d46dc84e86f4177d,,null,<img     src='G_2.jpg' height='90'> <img     src='G_7.jpg' height='90'> <img     src='G_6.jpg' height='90'> <img id='selected'     src='G_5.jpg' height='90'> <img id='selected'  src='G_8.jpg' height='90'> <img      src='G_1.jpg' height='90'> <img src='G_3.jpg' height='90'> <img src='G_4.jpg' height='90'>,null,Animation1,
,,,,,html-keyboard-response,105,289547,0.0-94.0,10,1,2025-01-20 19:53:42,8e5ef0ea70509e21e61f535100ed03ac,206.251.202.37,Mozilla/5.0 (Windows NT 10.0; Win64; x64; rv:134.0) Gecko/20100101 Firefox/134.0,,Firefox,134.0,Windows,10.0,https://app.prolific.com/,"en-US,en;q=0.5",6772aeebf2034af0ea4f5a63,678b1bdf6d0aefd65c71dcd2,678ea9b2d46dc84e86f4177d,,null,<img     src='G_2.jpg' height='90'> <img     src='G_7.jpg' height='90'> <img     src='G_6.jpg' height='90'> <img      src='G_5.jpg' height='90'> <img   src='G_8.jpg' height='90'> <img      src='G_1.jpg' height='90'> <img src='G_3.jpg' height='90'> <img src='G_4.jpg' height='90'>,null,Animation1,
,,,,,html-keyboard-response,106,290065,0.0-95.0,10,1,2025-01-20 19:53:42,8e5ef0ea70509e21e61f535100ed03ac,206.251.202.37,Mozilla/5.0 (Windows NT 10.0; Win64; x64; rv:134.0) Gecko/20100101 Firefox/134.0,,Firefox,134.0,Windows,10.0,https://app.prolific.com/,"en-US,en;q=0.5",6772aeebf2034af0ea4f5a63,678b1bdf6d0aefd65c71dcd2,678ea9b2d46dc84e86f4177d,,null,<img     src='G_2.jpg' height='90'> <img     src='G_7.jpg' height='90'> <img     src='G_6.jpg' height='90'> <img      src='G_5.jpg' height='90'> <img   src='G_8.jpg' height='90'> <img id='selected'      src='G_1.jpg' height='90'> <img src='G_3.jpg' height='90'> <img src='G_4.jpg' height='90'>,null,Animation1,
,,,,,html-keyboard-response,107,290602,0.0-96.0,10,1,2025-01-20 19:53:42,8e5ef0ea70509e21e61f535100ed03ac,206.251.202.37,Mozilla/5.0 (Windows NT 10.0; Win64; x64; rv:134.0) Gecko/20100101 Firefox/134.0,,Firefox,134.0,Windows,10.0,https://app.prolific.com/,"en-US,en;q=0.5",6772aeebf2034af0ea4f5a63,678b1bdf6d0aefd65c71dcd2,678ea9b2d46dc84e86f4177d,,null,<img     src='G_2.jpg' height='90'> <img     src='G_7.jpg' height='90'> <img     src='G_6.jpg' height='90'> <img      src='G_5.jpg' height='90'> <img   src='G_8.jpg' height='90'> <img id='selected'      src='G_1.jpg' height='90'> <img id='selected' src='G_3.jpg' height='90'> <img src='G_4.jpg' height='90'>,null,Animation1,
,,,,,html-keyboard-response,108,291118,0.0-97.0,10,1,2025-01-20 19:53:42,8e5ef0ea70509e21e61f535100ed03ac,206.251.202.37,Mozilla/5.0 (Windows NT 10.0; Win64; x64; rv:134.0) Gecko/20100101 Firefox/134.0,,Firefox,134.0,Windows,10.0,https://app.prolific.com/,"en-US,en;q=0.5",6772aeebf2034af0ea4f5a63,678b1bdf6d0aefd65c71dcd2,678ea9b2d46dc84e86f4177d,,null,<img     src='G_2.jpg' height='90'> <img     src='G_7.jpg' height='90'> <img     src='G_6.jpg' height='90'> <img      src='G_5.jpg' height='90'> <img   src='G_8.jpg' height='90'> <img id='selected'      src='G_1.jpg' height='90'> <img id='selected' src='G_3.jpg' height='90'> <img src='G_4.jpg' height='90'>,null,Animation1,
,,,,,html-keyboard-response,109,291449,0.0-98.0,10,1,2025-01-20 19:53:42,8e5ef0ea70509e21e61f535100ed03ac,206.251.202.37,Mozilla/5.0 (Windows NT 10.0; Win64; x64; rv:134.0) Gecko/20100101 Firefox/134.0,,Firefox,134.0,Windows,10.0,https://app.prolific.com/,"en-US,en;q=0.5",6772aeebf2034af0ea4f5a63,678b1bdf6d0aefd65c71dcd2,678ea9b2d46dc84e86f4177d,,null,<img     src='G_2.jpg' height='90'> <img     src='G_7.jpg' height='90'> <img     src='G_6.jpg' height='90'> <img      src='G_5.jpg' height='90'> <img   src='G_8.jpg' height='90'> <img       src='G_1.jpg' height='90'> <img  src='G_3.jpg' height='90'> <img src='G_4.jpg' height='90'>,null,Animation1,
,,,,,html-keyboard-response,110,291966,0.0-99.0,10,1,2025-01-20 19:53:42,8e5ef0ea70509e21e61f535100ed03ac,206.251.202.37,Mozilla/5.0 (Windows NT 10.0; Win64; x64; rv:134.0) Gecko/20100101 Firefox/134.0,,Firefox,134.0,Windows,10.0,https://app.prolific.com/,"en-US,en;q=0.5",6772aeebf2034af0ea4f5a63,678b1bdf6d0aefd65c71dcd2,678ea9b2d46dc84e86f4177d,,null,<img     src='G_2.jpg' height='90'> <img     src='G_7.jpg' height='90'> <img     src='G_6.jpg' height='90'> <img      src='G_5.jpg' height='90'> <img   src='G_8.jpg' height='90'> <img       src='G_1.jpg' height='90'> <img id='selected'  src='G_3.jpg' height='90'> <img src='G_4.jpg' height='90'>,null,Animation1,
,,,,,html-keyboard-response,111,292505,0.0-100.0,10,1,2025-01-20 19:53:42,8e5ef0ea70509e21e61f535100ed03ac,206.251.202.37,Mozilla/5.0 (Windows NT 10.0; Win64; x64; rv:134.0) Gecko/20100101 Firefox/134.0,,Firefox,134.0,Windows,10.0,https://app.prolific.com/,"en-US,en;q=0.5",6772aeebf2034af0ea4f5a63,678b1bdf6d0aefd65c71dcd2,678ea9b2d46dc84e86f4177d,,null,<img     src='G_2.jpg' height='90'> <img     src='G_7.jpg' height='90'> <img     src='G_6.jpg' height='90'> <img      src='G_5.jpg' height='90'> <img   src='G_8.jpg' height='90'> <img       src='G_1.jpg' height='90'> <img id='selected'  src='G_3.jpg' height='90'> <img id='selected' src='G_4.jpg' height='90'>,null,Animation1,
,,,,,html-keyboard-response,112,293039,0.0-101.0,10,1,2025-01-20 19:53:42,8e5ef0ea70509e21e61f535100ed03ac,206.251.202.37,Mozilla/5.0 (Windows NT 10.0; Win64; x64; rv:134.0) Gecko/20100101 Firefox/134.0,,Firefox,134.0,Windows,10.0,https://app.prolific.com/,"en-US,en;q=0.5",6772aeebf2034af0ea4f5a63,678b1bdf6d0aefd65c71dcd2,678ea9b2d46dc84e86f4177d,,null,<img     src='G_2.jpg' height='90'> <img     src='G_7.jpg' height='90'> <img     src='G_6.jpg' height='90'> <img      src='G_5.jpg' height='90'> <img   src='G_8.jpg' height='90'> <img       src='G_1.jpg' height='90'> <img id='swapped' src='G_4.jpg' height='90'> <img id='swapped'  src='G_3.jpg' height='90'>,null,Animation1,
,,,,,html-keyboard-response,113,293369,0.0-102.0,10,1,2025-01-20 19:53:42,8e5ef0ea70509e21e61f535100ed03ac,206.251.202.37,Mozilla/5.0 (Windows NT 10.0; Win64; x64; rv:134.0) Gecko/20100101 Firefox/134.0,,Firefox,134.0,Windows,10.0,https://app.prolific.com/,"en-US,en;q=0.5",6772aeebf2034af0ea4f5a63,678b1bdf6d0aefd65c71dcd2,678ea9b2d46dc84e86f4177d,,null,<img     src='G_2.jpg' height='90'> <img     src='G_7.jpg' height='90'> <img     src='G_6.jpg' height='90'> <img      src='G_5.jpg' height='90'> <img   src='G_8.jpg' height='90'> <img       src='G_1.jpg' height='90'> <img  src='G_4.jpg' height='90'> <img   src='G_3.jpg' height='90'>,null,Animation1,
,,,,,html-keyboard-response,114,293887,0.0-103.0,10,1,2025-01-20 19:53:42,8e5ef0ea70509e21e61f535100ed03ac,206.251.202.37,Mozilla/5.0 (Windows NT 10.0; Win64; x64; rv:134.0) Gecko/20100101 Firefox/134.0,,Firefox,134.0,Windows,10.0,https://app.prolific.com/,"en-US,en;q=0.5",6772aeebf2034af0ea4f5a63,678b1bdf6d0aefd65c71dcd2,678ea9b2d46dc84e86f4177d,,null,<img     src='G_2.jpg' height='90'> <img     src='G_7.jpg' height='90'> <img     src='G_6.jpg' height='90'> <img      src='G_5.jpg' height='90'> <img   src='G_8.jpg' height='90'> <img id='selected'       src='G_1.jpg' height='90'> <img  src='G_4.jpg' height='90'> <img   src='G_3.jpg' height='90'>,null,Animation1,
,,,,,html-keyboard-response,115,294410,0.0-104.0,10,1,2025-01-20 19:53:42,8e5ef0ea70509e21e61f535100ed03ac,206.251.202.37,Mozilla/5.0 (Windows NT 10.0; Win64; x64; rv:134.0) Gecko/20100101 Firefox/134.0,,Firefox,134.0,Windows,10.0,https://app.prolific.com/,"en-US,en;q=0.5",6772aeebf2034af0ea4f5a63,678b1bdf6d0aefd65c71dcd2,678ea9b2d46dc84e86f4177d,,null,<img     src='G_2.jpg' height='90'> <img     src='G_7.jpg' height='90'> <img     src='G_6.jpg' height='90'> <img      src='G_5.jpg' height='90'> <img   src='G_8.jpg' height='90'> <img id='selected'       src='G_1.jpg' height='90'> <img id='selected'  src='G_4.jpg' height='90'> <img   src='G_3.jpg' height='90'>,null,Animation1,
,,,,,html-keyboard-response,116,294942,0.0-105.0,10,1,2025-01-20 19:53:42,8e5ef0ea70509e21e61f535100ed03ac,206.251.202.37,Mozilla/5.0 (Windows NT 10.0; Win64; x64; rv:134.0) Gecko/20100101 Firefox/134.0,,Firefox,134.0,Windows,10.0,https://app.prolific.com/,"en-US,en;q=0.5",6772aeebf2034af0ea4f5a63,678b1bdf6d0aefd65c71dcd2,678ea9b2d46dc84e86f4177d,,null,<img     src='G_2.jpg' height='90'> <img     src='G_7.jpg' height='90'> <img     src='G_6.jpg' height='90'> <img      src='G_5.jpg' height='90'> <img   src='G_8.jpg' height='90'> <img id='selected'       src='G_1.jpg' height='90'> <img id='selected'  src='G_4.jpg' height='90'> <img   src='G_3.jpg' height='90'>,null,Animation1,
,,,,,html-keyboard-response,117,295272,0.0-106.0,10,1,2025-01-20 19:53:42,8e5ef0ea70509e21e61f535100ed03ac,206.251.202.37,Mozilla/5.0 (Windows NT 10.0; Win64; x64; rv:134.0) Gecko/20100101 Firefox/134.0,,Firefox,134.0,Windows,10.0,https://app.prolific.com/,"en-US,en;q=0.5",6772aeebf2034af0ea4f5a63,678b1bdf6d0aefd65c71dcd2,678ea9b2d46dc84e86f4177d,,null,<img     src='G_2.jpg' height='90'> <img     src='G_7.jpg' height='90'> <img     src='G_6.jpg' height='90'> <img      src='G_5.jpg' height='90'> <img   src='G_8.jpg' height='90'> <img        src='G_1.jpg' height='90'> <img   src='G_4.jpg' height='90'> <img   src='G_3.jpg' height='90'>,null,Animation1,
,,,,,html-keyboard-response,118,297969,0.0-107.0,10,1,2025-01-20 19:53:42,8e5ef0ea70509e21e61f535100ed03ac,206.251.202.37,Mozilla/5.0 (Windows NT 10.0; Win64; x64; rv:134.0) Gecko/20100101 Firefox/134.0,,Firefox,134.0,Windows,10.0,https://app.prolific.com/,"en-US,en;q=0.5",6772aeebf2034af0ea4f5a63,678b1bdf6d0aefd65c71dcd2,678ea9b2d46dc84e86f4177d,,2677,"[""Did you notice any patterns? <br><br>Press Enter to watch that example again and follow the steps of Omgne Sort.""]",enter,,
,,,,,html-button-response,119,298394,0.0-108.0,10,1,2025-01-20 19:53:42,8e5ef0ea70509e21e61f535100ed03ac,206.251.202.37,Mozilla/5.0 (Windows NT 10.0; Win64; x64; rv:134.0) Gecko/20100101 Firefox/134.0,,Firefox,134.0,Windows,10.0,https://app.prolific.com/,"en-US,en;q=0.5",6772aeebf2034af0ea4f5a63,678b1bdf6d0aefd65c71dcd2,678ea9b2d46dc84e86f4177d,,null,<img id='selected' src='G_5.jpg' height='90'> <img src='G_1.jpg' height='90'> <img src='G_6.jpg' height='90'> <img src='G_2.jpg' height='90'> <img src='G_7.jpg' height='90'> <img src='G_8.jpg' height='90'> <img src='G_3.jpg' height='90'> <img src='G_4.jpg' height='90'>,null,Learning example 1,
,,,,,html-button-response,120,298732,0.0-109.0,10,1,2025-01-20 19:53:42,8e5ef0ea70509e21e61f535100ed03ac,206.251.202.37,Mozilla/5.0 (Windows NT 10.0; Win64; x64; rv:134.0) Gecko/20100101 Firefox/134.0,,Firefox,134.0,Windows,10.0,https://app.prolific.com/,"en-US,en;q=0.5",6772aeebf2034af0ea4f5a63,678b1bdf6d0aefd65c71dcd2,678ea9b2d46dc84e86f4177d,,null,<img id='selected' src='G_5.jpg' height='90'> <img id='selected' src='G_1.jpg' height='90'> <img src='G_6.jpg' height='90'> <img src='G_2.jpg' height='90'> <img src='G_7.jpg' height='90'> <img src='G_8.jpg' height='90'> <img src='G_3.jpg' height='90'> <img src='G_4.jpg' height='90'>,null,Learning example 1,
,,,,,html-button-response,121,299048,0.0-110.0,10,1,2025-01-20 19:53:42,8e5ef0ea70509e21e61f535100ed03ac,206.251.202.37,Mozilla/5.0 (Windows NT 10.0; Win64; x64; rv:134.0) Gecko/20100101 Firefox/134.0,,Firefox,134.0,Windows,10.0,https://app.prolific.com/,"en-US,en;q=0.5",6772aeebf2034af0ea4f5a63,678b1bdf6d0aefd65c71dcd2,678ea9b2d46dc84e86f4177d,,null,<img id='selected' src='G_5.jpg' height='90'> <img id='selected' src='G_1.jpg' height='90'> <img src='G_6.jpg' height='90'> <img src='G_2.jpg' height='90'> <img src='G_7.jpg' height='90'> <img src='G_8.jpg' height='90'> <img src='G_3.jpg' height='90'> <img src='G_4.jpg' height='90'>,null,Learning example 1,
,,,,,html-button-response,122,301943,0.0-111.0-0.0-0.0,10,1,2025-01-20 19:53:42,8e5ef0ea70509e21e61f535100ed03ac,206.251.202.37,Mozilla/5.0 (Windows NT 10.0; Win64; x64; rv:134.0) Gecko/20100101 Firefox/134.0,,Firefox,134.0,Windows,10.0,https://app.prolific.com/,"en-US,en;q=0.5",6772aeebf2034af0ea4f5a63,678b1bdf6d0aefd65c71dcd2,678ea9b2d46dc84e86f4177d,,2882,<img id='selected' src='G_5.jpg' height='90'> <img id='selected' src='G_1.jpg' height='90'> <img src='G_6.jpg' height='90'> <img src='G_2.jpg' height='90'> <img src='G_7.jpg' height='90'> <img src='G_8.jpg' height='90'> <img src='G_3.jpg' height='90'> <img src='G_4.jpg' height='90'>,0,Learning example 1,
,,,,,html-button-response,123,302772,0.0-111.1-0.1-0.1,10,1,2025-01-20 19:53:42,8e5ef0ea70509e21e61f535100ed03ac,206.251.202.37,Mozilla/5.0 (Windows NT 10.0; Win64; x64; rv:134.0) Gecko/20100101 Firefox/134.0,,Firefox,134.0,Windows,10.0,https://app.prolific.com/,"en-US,en;q=0.5",6772aeebf2034af0ea4f5a63,678b1bdf6d0aefd65c71dcd2,678ea9b2d46dc84e86f4177d,,810,<img id='selected' src='G_5.jpg' height='90'> <img id='selected' src='G_1.jpg' height='90'> <img src='G_6.jpg' height='90'> <img src='G_2.jpg' height='90'> <img src='G_7.jpg' height='90'> <img src='G_8.jpg' height='90'> <img src='G_3.jpg' height='90'> <img src='G_4.jpg' height='90'>,1,Learning example 1,
,,,,,html-button-response,124,303006,0.0-112.0,10,1,2025-01-20 19:53:42,8e5ef0ea70509e21e61f535100ed03ac,206.251.202.37,Mozilla/5.0 (Windows NT 10.0; Win64; x64; rv:134.0) Gecko/20100101 Firefox/134.0,,Firefox,134.0,Windows,10.0,https://app.prolific.com/,"en-US,en;q=0.5",6772aeebf2034af0ea4f5a63,678b1bdf6d0aefd65c71dcd2,678ea9b2d46dc84e86f4177d,,null,<img  src='G_5.jpg' height='90'> <img  src='G_1.jpg' height='90'> <img src='G_6.jpg' height='90'> <img src='G_2.jpg' height='90'> <img src='G_7.jpg' height='90'> <img src='G_8.jpg' height='90'> <img src='G_3.jpg' height='90'> <img src='G_4.jpg' height='90'>,null,Learning example 1,
,,,,,html-button-response,125,303445,0.0-113.0,10,1,2025-01-20 19:53:42,8e5ef0ea70509e21e61f535100ed03ac,206.251.202.37,Mozilla/5.0 (Windows NT 10.0; Win64; x64; rv:134.0) Gecko/20100101 Firefox/134.0,,Firefox,134.0,Windows,10.0,https://app.prolific.com/,"en-US,en;q=0.5",6772aeebf2034af0ea4f5a63,678b1bdf6d0aefd65c71dcd2,678ea9b2d46dc84e86f4177d,,null,<img  src='G_5.jpg' height='90'> <img id='selected'  src='G_1.jpg' height='90'> <img src='G_6.jpg' height='90'> <img src='G_2.jpg' height='90'> <img src='G_7.jpg' height='90'> <img src='G_8.jpg' height='90'> <img src='G_3.jpg' height='90'> <img src='G_4.jpg' height='90'>,null,Learning example 1,
,,,,,html-button-response,126,303792,0.0-114.0,10,1,2025-01-20 19:53:42,8e5ef0ea70509e21e61f535100ed03ac,206.251.202.37,Mozilla/5.0 (Windows NT 10.0; Win64; x64; rv:134.0) Gecko/20100101 Firefox/134.0,,Firefox,134.0,Windows,10.0,https://app.prolific.com/,"en-US,en;q=0.5",6772aeebf2034af0ea4f5a63,678b1bdf6d0aefd65c71dcd2,678ea9b2d46dc84e86f4177d,,null,<img  src='G_5.jpg' height='90'> <img id='selected'  src='G_1.jpg' height='90'> <img id='selected' src='G_6.jpg' height='90'> <img src='G_2.jpg' height='90'> <img src='G_7.jpg' height='90'> <img src='G_8.jpg' height='90'> <img src='G_3.jpg' height='90'> <img src='G_4.jpg' height='90'>,null,Learning example 1,
,,,,,html-button-response,127,304131,0.0-115.0,10,1,2025-01-20 19:53:42,8e5ef0ea70509e21e61f535100ed03ac,206.251.202.37,Mozilla/5.0 (Windows NT 10.0; Win64; x64; rv:134.0) Gecko/20100101 Firefox/134.0,,Firefox,134.0,Windows,10.0,https://app.prolific.com/,"en-US,en;q=0.5",6772aeebf2034af0ea4f5a63,678b1bdf6d0aefd65c71dcd2,678ea9b2d46dc84e86f4177d,,null,<img  src='G_5.jpg' height='90'> <img id='swapped' src='G_6.jpg' height='90'> <img id='swapped'  src='G_1.jpg' height='90'> <img src='G_2.jpg' height='90'> <img src='G_7.jpg' height='90'> <img src='G_8.jpg' height='90'> <img src='G_3.jpg' height='90'> <img src='G_4.jpg' height='90'>,null,Learning example 1,
,,,,,html-button-response,128,305134,0.0-116.0-0.0-0.0,10,1,2025-01-20 19:53:42,8e5ef0ea70509e21e61f535100ed03ac,206.251.202.37,Mozilla/5.0 (Windows NT 10.0; Win64; x64; rv:134.0) Gecko/20100101 Firefox/134.0,,Firefox,134.0,Windows,10.0,https://app.prolific.com/,"en-US,en;q=0.5",6772aeebf2034af0ea4f5a63,678b1bdf6d0aefd65c71dcd2,678ea9b2d46dc84e86f4177d,,977,<img  src='G_5.jpg' height='90'> <img id='swapped' src='G_6.jpg' height='90'> <img id='swapped'  src='G_1.jpg' height='90'> <img src='G_2.jpg' height='90'> <img src='G_7.jpg' height='90'> <img src='G_8.jpg' height='90'> <img src='G_3.jpg' height='90'> <img src='G_4.jpg' height='90'>,1,Learning example 1,
,,,,,html-button-response,129,306284,0.0-116.1-0.1-0.1,10,1,2025-01-20 19:53:42,8e5ef0ea70509e21e61f535100ed03ac,206.251.202.37,Mozilla/5.0 (Windows NT 10.0; Win64; x64; rv:134.0) Gecko/20100101 Firefox/134.0,,Firefox,134.0,Windows,10.0,https://app.prolific.com/,"en-US,en;q=0.5",6772aeebf2034af0ea4f5a63,678b1bdf6d0aefd65c71dcd2,678ea9b2d46dc84e86f4177d,,1130,<img  src='G_5.jpg' height='90'> <img id='swapped' src='G_6.jpg' height='90'> <img id='swapped'  src='G_1.jpg' height='90'> <img src='G_2.jpg' height='90'> <img src='G_7.jpg' height='90'> <img src='G_8.jpg' height='90'> <img src='G_3.jpg' height='90'> <img src='G_4.jpg' height='90'>,2,Learning example 1,
,,,,,html-button-response,130,306511,0.0-117.0,10,1,2025-01-20 19:53:42,8e5ef0ea70509e21e61f535100ed03ac,206.251.202.37,Mozilla/5.0 (Windows NT 10.0; Win64; x64; rv:134.0) Gecko/20100101 Firefox/134.0,,Firefox,134.0,Windows,10.0,https://app.prolific.com/,"en-US,en;q=0.5",6772aeebf2034af0ea4f5a63,678b1bdf6d0aefd65c71dcd2,678ea9b2d46dc84e86f4177d,,null,<img  src='G_5.jpg' height='90'> <img  src='G_6.jpg' height='90'> <img   src='G_1.jpg' height='90'> <img src='G_2.jpg' height='90'> <img src='G_7.jpg' height='90'> <img src='G_8.jpg' height='90'> <img src='G_3.jpg' height='90'> <img src='G_4.jpg' height='90'>,null,Learning example 1,
,,,,,html-button-response,131,306934,0.0-118.0,10,1,2025-01-20 19:53:42,8e5ef0ea70509e21e61f535100ed03ac,206.251.202.37,Mozilla/5.0 (Windows NT 10.0; Win64; x64; rv:134.0) Gecko/20100101 Firefox/134.0,,Firefox,134.0,Windows,10.0,https://app.prolific.com/,"en-US,en;q=0.5",6772aeebf2034af0ea4f5a63,678b1bdf6d0aefd65c71dcd2,678ea9b2d46dc84e86f4177d,,null,<img id='selected'  src='G_5.jpg' height='90'> <img  src='G_6.jpg' height='90'> <img   src='G_1.jpg' height='90'> <img src='G_2.jpg' height='90'> <img src='G_7.jpg' height='90'> <img src='G_8.jpg' height='90'> <img src='G_3.jpg' height='90'> <img src='G_4.jpg' height='90'>,null,Learning example 1,
,,,,,html-button-response,132,307268,0.0-119.0,10,1,2025-01-20 19:53:42,8e5ef0ea70509e21e61f535100ed03ac,206.251.202.37,Mozilla/5.0 (Windows NT 10.0; Win64; x64; rv:134.0) Gecko/20100101 Firefox/134.0,,Firefox,134.0,Windows,10.0,https://app.prolific.com/,"en-US,en;q=0.5",6772aeebf2034af0ea4f5a63,678b1bdf6d0aefd65c71dcd2,678ea9b2d46dc84e86f4177d,,null,<img id='selected'  src='G_5.jpg' height='90'> <img id='selected'  src='G_6.jpg' height='90'> <img   src='G_1.jpg' height='90'> <img src='G_2.jpg' height='90'> <img src='G_7.jpg' height='90'> <img src='G_8.jpg' height='90'> <img src='G_3.jpg' height='90'> <img src='G_4.jpg' height='90'>,null,Learning example 1,
,,,,,html-button-response,133,307600,0.0-120.0,10,1,2025-01-20 19:53:42,8e5ef0ea70509e21e61f535100ed03ac,206.251.202.37,Mozilla/5.0 (Windows NT 10.0; Win64; x64; rv:134.0) Gecko/20100101 Firefox/134.0,,Firefox,134.0,Windows,10.0,https://app.prolific.com/,"en-US,en;q=0.5",6772aeebf2034af0ea4f5a63,678b1bdf6d0aefd65c71dcd2,678ea9b2d46dc84e86f4177d,,null,<img id='swapped'  src='G_6.jpg' height='90'> <img id='swapped'  src='G_5.jpg' height='90'> <img   src='G_1.jpg' height='90'> <img src='G_2.jpg' height='90'> <img src='G_7.jpg' height='90'> <img src='G_8.jpg' height='90'> <img src='G_3.jpg' height='90'> <img src='G_4.jpg' height='90'>,null,Learning example 1,
,,,,,html-button-response,134,311561,0.0-121.0-0.0-0.0,10,1,2025-01-20 19:53:42,8e5ef0ea70509e21e61f535100ed03ac,206.251.202.37,Mozilla/5.0 (Windows NT 10.0; Win64; x64; rv:134.0) Gecko/20100101 Firefox/134.0,,Firefox,134.0,Windows,10.0,https://app.prolific.com/,"en-US,en;q=0.5",6772aeebf2034af0ea4f5a63,678b1bdf6d0aefd65c71dcd2,678ea9b2d46dc84e86f4177d,,3935,<img id='swapped'  src='G_6.jpg' height='90'> <img id='swapped'  src='G_5.jpg' height='90'> <img   src='G_1.jpg' height='90'> <img src='G_2.jpg' height='90'> <img src='G_7.jpg' height='90'> <img src='G_8.jpg' height='90'> <img src='G_3.jpg' height='90'> <img src='G_4.jpg' height='90'>,0,Learning example 1,
,,,,,html-button-response,135,312646,0.0-121.1-0.1-0.1,10,1,2025-01-20 19:53:42,8e5ef0ea70509e21e61f535100ed03ac,206.251.202.37,Mozilla/5.0 (Windows NT 10.0; Win64; x64; rv:134.0) Gecko/20100101 Firefox/134.0,,Firefox,134.0,Windows,10.0,https://app.prolific.com/,"en-US,en;q=0.5",6772aeebf2034af0ea4f5a63,678b1bdf6d0aefd65c71dcd2,678ea9b2d46dc84e86f4177d,,1056,<img id='swapped'  src='G_6.jpg' height='90'> <img id='swapped'  src='G_5.jpg' height='90'> <img   src='G_1.jpg' height='90'> <img src='G_2.jpg' height='90'> <img src='G_7.jpg' height='90'> <img src='G_8.jpg' height='90'> <img src='G_3.jpg' height='90'> <img src='G_4.jpg' height='90'>,1,Learning example 1,
,,,,,html-button-response,136,312878,0.0-122.0,10,1,2025-01-20 19:53:42,8e5ef0ea70509e21e61f535100ed03ac,206.251.202.37,Mozilla/5.0 (Windows NT 10.0; Win64; x64; rv:134.0) Gecko/20100101 Firefox/134.0,,Firefox,134.0,Windows,10.0,https://app.prolific.com/,"en-US,en;q=0.5",6772aeebf2034af0ea4f5a63,678b1bdf6d0aefd65c71dcd2,678ea9b2d46dc84e86f4177d,,null,<img   src='G_6.jpg' height='90'> <img   src='G_5.jpg' height='90'> <img   src='G_1.jpg' height='90'> <img src='G_2.jpg' height='90'> <img src='G_7.jpg' height='90'> <img src='G_8.jpg' height='90'> <img src='G_3.jpg' height='90'> <img src='G_4.jpg' height='90'>,null,Learning example 1,
,,,,,html-button-response,137,313295,0.0-123.0,10,1,2025-01-20 19:53:42,8e5ef0ea70509e21e61f535100ed03ac,206.251.202.37,Mozilla/5.0 (Windows NT 10.0; Win64; x64; rv:134.0) Gecko/20100101 Firefox/134.0,,Firefox,134.0,Windows,10.0,https://app.prolific.com/,"en-US,en;q=0.5",6772aeebf2034af0ea4f5a63,678b1bdf6d0aefd65c71dcd2,678ea9b2d46dc84e86f4177d,,null,<img   src='G_6.jpg' height='90'> <img   src='G_5.jpg' height='90'> <img id='selected'   src='G_1.jpg' height='90'> <img src='G_2.jpg' height='90'> <img src='G_7.jpg' height='90'> <img src='G_8.jpg' height='90'> <img src='G_3.jpg' height='90'> <img src='G_4.jpg' height='90'>,null,Learning example 1,
,,,,,html-button-response,138,313627,0.0-124.0,10,1,2025-01-20 19:53:42,8e5ef0ea70509e21e61f535100ed03ac,206.251.202.37,Mozilla/5.0 (Windows NT 10.0; Win64; x64; rv:134.0) Gecko/20100101 Firefox/134.0,,Firefox,134.0,Windows,10.0,https://app.prolific.com/,"en-US,en;q=0.5",6772aeebf2034af0ea4f5a63,678b1bdf6d0aefd65c71dcd2,678ea9b2d46dc84e86f4177d,,null,<img   src='G_6.jpg' height='90'> <img   src='G_5.jpg' height='90'> <img id='selected'   src='G_1.jpg' height='90'> <img id='selected' src='G_2.jpg' height='90'> <img src='G_7.jpg' height='90'> <img src='G_8.jpg' height='90'> <img src='G_3.jpg' height='90'> <img src='G_4.jpg' height='90'>,null,Learning example 1,
,,,,,html-button-response,139,313964,0.0-125.0,10,1,2025-01-20 19:53:42,8e5ef0ea70509e21e61f535100ed03ac,206.251.202.37,Mozilla/5.0 (Windows NT 10.0; Win64; x64; rv:134.0) Gecko/20100101 Firefox/134.0,,Firefox,134.0,Windows,10.0,https://app.prolific.com/,"en-US,en;q=0.5",6772aeebf2034af0ea4f5a63,678b1bdf6d0aefd65c71dcd2,678ea9b2d46dc84e86f4177d,,null,<img   src='G_6.jpg' height='90'> <img   src='G_5.jpg' height='90'> <img id='swapped' src='G_2.jpg' height='90'> <img id='swapped'   src='G_1.jpg' height='90'> <img src='G_7.jpg' height='90'> <img src='G_8.jpg' height='90'> <img src='G_3.jpg' height='90'> <img src='G_4.jpg' height='90'>,null,Learning example 1,
,,,,,html-button-response,140,315439,0.0-126.0-0.0-0.0,10,1,2025-01-20 19:53:42,8e5ef0ea70509e21e61f535100ed03ac,206.251.202.37,Mozilla/5.0 (Windows NT 10.0; Win64; x64; rv:134.0) Gecko/20100101 Firefox/134.0,,Firefox,134.0,Windows,10.0,https://app.prolific.com/,"en-US,en;q=0.5",6772aeebf2034af0ea4f5a63,678b1bdf6d0aefd65c71dcd2,678ea9b2d46dc84e86f4177d,,1442,<img   src='G_6.jpg' height='90'> <img   src='G_5.jpg' height='90'> <img id='swapped' src='G_2.jpg' height='90'> <img id='swapped'   src='G_1.jpg' height='90'> <img src='G_7.jpg' height='90'> <img src='G_8.jpg' height='90'> <img src='G_3.jpg' height='90'> <img src='G_4.jpg' height='90'>,2,Learning example 1,
,,,,,html-button-response,141,316393,0.0-126.1-0.1-0.1,10,1,2025-01-20 19:53:42,8e5ef0ea70509e21e61f535100ed03ac,206.251.202.37,Mozilla/5.0 (Windows NT 10.0; Win64; x64; rv:134.0) Gecko/20100101 Firefox/134.0,,Firefox,134.0,Windows,10.0,https://app.prolific.com/,"en-US,en;q=0.5",6772aeebf2034af0ea4f5a63,678b1bdf6d0aefd65c71dcd2,678ea9b2d46dc84e86f4177d,,931,<img   src='G_6.jpg' height='90'> <img   src='G_5.jpg' height='90'> <img id='swapped' src='G_2.jpg' height='90'> <img id='swapped'   src='G_1.jpg' height='90'> <img src='G_7.jpg' height='90'> <img src='G_8.jpg' height='90'> <img src='G_3.jpg' height='90'> <img src='G_4.jpg' height='90'>,3,Learning example 1,
,,,,,html-button-response,142,316621,0.0-127.0,10,1,2025-01-20 19:53:42,8e5ef0ea70509e21e61f535100ed03ac,206.251.202.37,Mozilla/5.0 (Windows NT 10.0; Win64; x64; rv:134.0) Gecko/20100101 Firefox/134.0,,Firefox,134.0,Windows,10.0,https://app.prolific.com/,"en-US,en;q=0.5",6772aeebf2034af0ea4f5a63,678b1bdf6d0aefd65c71dcd2,678ea9b2d46dc84e86f4177d,,null,<img   src='G_6.jpg' height='90'> <img   src='G_5.jpg' height='90'> <img  src='G_2.jpg' height='90'> <img    src='G_1.jpg' height='90'> <img src='G_7.jpg' height='90'> <img src='G_8.jpg' height='90'> <img src='G_3.jpg' height='90'> <img src='G_4.jpg' height='90'>,null,Learning example 1,
,,,,,html-button-response,143,317059,0.0-128.0,10,1,2025-01-20 19:53:42,8e5ef0ea70509e21e61f535100ed03ac,206.251.202.37,Mozilla/5.0 (Windows NT 10.0; Win64; x64; rv:134.0) Gecko/20100101 Firefox/134.0,,Firefox,134.0,Windows,10.0,https://app.prolific.com/,"en-US,en;q=0.5",6772aeebf2034af0ea4f5a63,678b1bdf6d0aefd65c71dcd2,678ea9b2d46dc84e86f4177d,,null,<img   src='G_6.jpg' height='90'> <img id='selected'   src='G_5.jpg' height='90'> <img  src='G_2.jpg' height='90'> <img    src='G_1.jpg' height='90'> <img src='G_7.jpg' height='90'> <img src='G_8.jpg' height='90'> <img src='G_3.jpg' height='90'> <img src='G_4.jpg' height='90'>,null,Learning example 1,
,,,,,html-button-response,144,317390,0.0-129.0,10,1,2025-01-20 19:53:42,8e5ef0ea70509e21e61f535100ed03ac,206.251.202.37,Mozilla/5.0 (Windows NT 10.0; Win64; x64; rv:134.0) Gecko/20100101 Firefox/134.0,,Firefox,134.0,Windows,10.0,https://app.prolific.com/,"en-US,en;q=0.5",6772aeebf2034af0ea4f5a63,678b1bdf6d0aefd65c71dcd2,678ea9b2d46dc84e86f4177d,,null,<img   src='G_6.jpg' height='90'> <img id='selected'   src='G_5.jpg' height='90'> <img id='selected'  src='G_2.jpg' height='90'> <img    src='G_1.jpg' height='90'> <img src='G_7.jpg' height='90'> <img src='G_8.jpg' height='90'> <img src='G_3.jpg' height='90'> <img src='G_4.jpg' height='90'>,null,Learning example 1,
,,,,,html-button-response,145,317737,0.0-130.0,10,1,2025-01-20 19:53:42,8e5ef0ea70509e21e61f535100ed03ac,206.251.202.37,Mozilla/5.0 (Windows NT 10.0; Win64; x64; rv:134.0) Gecko/20100101 Firefox/134.0,,Firefox,134.0,Windows,10.0,https://app.prolific.com/,"en-US,en;q=0.5",6772aeebf2034af0ea4f5a63,678b1bdf6d0aefd65c71dcd2,678ea9b2d46dc84e86f4177d,,null,<img   src='G_6.jpg' height='90'> <img id='swapped'  src='G_2.jpg' height='90'> <img id='swapped'   src='G_5.jpg' height='90'> <img    src='G_1.jpg' height='90'> <img src='G_7.jpg' height='90'> <img src='G_8.jpg' height='90'> <img src='G_3.jpg' height='90'> <img src='G_4.jpg' height='90'>,null,Learning example 1,
,,,,,html-button-response,146,319426,0.0-131.0-0.0-0.0,10,1,2025-01-20 19:53:42,8e5ef0ea70509e21e61f535100ed03ac,206.251.202.37,Mozilla/5.0 (Windows NT 10.0; Win64; x64; rv:134.0) Gecko/20100101 Firefox/134.0,,Firefox,134.0,Windows,10.0,https://app.prolific.com/,"en-US,en;q=0.5",6772aeebf2034af0ea4f5a63,678b1bdf6d0aefd65c71dcd2,678ea9b2d46dc84e86f4177d,,1662,<img   src='G_6.jpg' height='90'> <img id='swapped'  src='G_2.jpg' height='90'> <img id='swapped'   src='G_5.jpg' height='90'> <img    src='G_1.jpg' height='90'> <img src='G_7.jpg' height='90'> <img src='G_8.jpg' height='90'> <img src='G_3.jpg' height='90'> <img src='G_4.jpg' height='90'>,1,Learning example 1,
,,,,,html-button-response,147,320280,0.0-131.1-0.1-0.1,10,1,2025-01-20 19:53:42,8e5ef0ea70509e21e61f535100ed03ac,206.251.202.37,Mozilla/5.0 (Windows NT 10.0; Win64; x64; rv:134.0) Gecko/20100101 Firefox/134.0,,Firefox,134.0,Windows,10.0,https://app.prolific.com/,"en-US,en;q=0.5",6772aeebf2034af0ea4f5a63,678b1bdf6d0aefd65c71dcd2,678ea9b2d46dc84e86f4177d,,831,<img   src='G_6.jpg' height='90'> <img id='swapped'  src='G_2.jpg' height='90'> <img id='swapped'   src='G_5.jpg' height='90'> <img    src='G_1.jpg' height='90'> <img src='G_7.jpg' height='90'> <img src='G_8.jpg' height='90'> <img src='G_3.jpg' height='90'> <img src='G_4.jpg' height='90'>,2,Learning example 1,
,,,,,html-button-response,148,320514,0.0-132.0,10,1,2025-01-20 19:53:42,8e5ef0ea70509e21e61f535100ed03ac,206.251.202.37,Mozilla/5.0 (Windows NT 10.0; Win64; x64; rv:134.0) Gecko/20100101 Firefox/134.0,,Firefox,134.0,Windows,10.0,https://app.prolific.com/,"en-US,en;q=0.5",6772aeebf2034af0ea4f5a63,678b1bdf6d0aefd65c71dcd2,678ea9b2d46dc84e86f4177d,,null,<img   src='G_6.jpg' height='90'> <img   src='G_2.jpg' height='90'> <img    src='G_5.jpg' height='90'> <img    src='G_1.jpg' height='90'> <img src='G_7.jpg' height='90'> <img src='G_8.jpg' height='90'> <img src='G_3.jpg' height='90'> <img src='G_4.jpg' height='90'>,null,Learning example 1,
,,,,,html-button-response,149,320945,0.0-133.0,10,1,2025-01-20 19:53:42,8e5ef0ea70509e21e61f535100ed03ac,206.251.202.37,Mozilla/5.0 (Windows NT 10.0; Win64; x64; rv:134.0) Gecko/20100101 Firefox/134.0,,Firefox,134.0,Windows,10.0,https://app.prolific.com/,"en-US,en;q=0.5",6772aeebf2034af0ea4f5a63,678b1bdf6d0aefd65c71dcd2,678ea9b2d46dc84e86f4177d,,null,<img id='selected'   src='G_6.jpg' height='90'> <img   src='G_2.jpg' height='90'> <img    src='G_5.jpg' height='90'> <img    src='G_1.jpg' height='90'> <img src='G_7.jpg' height='90'> <img src='G_8.jpg' height='90'> <img src='G_3.jpg' height='90'> <img src='G_4.jpg' height='90'>,null,Learning example 1,
,,,,,html-button-response,150,321284,0.0-134.0,10,1,2025-01-20 19:53:42,8e5ef0ea70509e21e61f535100ed03ac,206.251.202.37,Mozilla/5.0 (Windows NT 10.0; Win64; x64; rv:134.0) Gecko/20100101 Firefox/134.0,,Firefox,134.0,Windows,10.0,https://app.prolific.com/,"en-US,en;q=0.5",6772aeebf2034af0ea4f5a63,678b1bdf6d0aefd65c71dcd2,678ea9b2d46dc84e86f4177d,,null,<img id='selected'   src='G_6.jpg' height='90'> <img id='selected'   src='G_2.jpg' height='90'> <img    src='G_5.jpg' height='90'> <img    src='G_1.jpg' height='90'> <img src='G_7.jpg' height='90'> <img src='G_8.jpg' height='90'> <img src='G_3.jpg' height='90'> <img src='G_4.jpg' height='90'>,null,Learning example 1,
,,,,,html-button-response,151,321647,0.0-135.0,10,1,2025-01-20 19:53:42,8e5ef0ea70509e21e61f535100ed03ac,206.251.202.37,Mozilla/5.0 (Windows NT 10.0; Win64; x64; rv:134.0) Gecko/20100101 Firefox/134.0,,Firefox,134.0,Windows,10.0,https://app.prolific.com/,"en-US,en;q=0.5",6772aeebf2034af0ea4f5a63,678b1bdf6d0aefd65c71dcd2,678ea9b2d46dc84e86f4177d,,null,<img id='swapped'   src='G_2.jpg' height='90'> <img id='swapped'   src='G_6.jpg' height='90'> <img    src='G_5.jpg' height='90'> <img    src='G_1.jpg' height='90'> <img src='G_7.jpg' height='90'> <img src='G_8.jpg' height='90'> <img src='G_3.jpg' height='90'> <img src='G_4.jpg' height='90'>,null,Learning example 1,
,,,,,html-button-response,152,323162,0.0-136.0-0.0-0.0,10,1,2025-01-20 19:53:42,8e5ef0ea70509e21e61f535100ed03ac,206.251.202.37,Mozilla/5.0 (Windows NT 10.0; Win64; x64; rv:134.0) Gecko/20100101 Firefox/134.0,,Firefox,134.0,Windows,10.0,https://app.prolific.com/,"en-US,en;q=0.5",6772aeebf2034af0ea4f5a63,678b1bdf6d0aefd65c71dcd2,678ea9b2d46dc84e86f4177d,,1482,<img id='swapped'   src='G_2.jpg' height='90'> <img id='swapped'   src='G_6.jpg' height='90'> <img    src='G_5.jpg' height='90'> <img    src='G_1.jpg' height='90'> <img src='G_7.jpg' height='90'> <img src='G_8.jpg' height='90'> <img src='G_3.jpg' height='90'> <img src='G_4.jpg' height='90'>,0,Learning example 1,
,,,,,html-button-response,153,324381,0.0-136.1-0.1-0.1,10,1,2025-01-20 19:53:42,8e5ef0ea70509e21e61f535100ed03ac,206.251.202.37,Mozilla/5.0 (Windows NT 10.0; Win64; x64; rv:134.0) Gecko/20100101 Firefox/134.0,,Firefox,134.0,Windows,10.0,https://app.prolific.com/,"en-US,en;q=0.5",6772aeebf2034af0ea4f5a63,678b1bdf6d0aefd65c71dcd2,678ea9b2d46dc84e86f4177d,,1200,<img id='swapped'   src='G_2.jpg' height='90'> <img id='swapped'   src='G_6.jpg' height='90'> <img    src='G_5.jpg' height='90'> <img    src='G_1.jpg' height='90'> <img src='G_7.jpg' height='90'> <img src='G_8.jpg' height='90'> <img src='G_3.jpg' height='90'> <img src='G_4.jpg' height='90'>,1,Learning example 1,
,,,,,html-button-response,154,324622,0.0-137.0,10,1,2025-01-20 19:53:42,8e5ef0ea70509e21e61f535100ed03ac,206.251.202.37,Mozilla/5.0 (Windows NT 10.0; Win64; x64; rv:134.0) Gecko/20100101 Firefox/134.0,,Firefox,134.0,Windows,10.0,https://app.prolific.com/,"en-US,en;q=0.5",6772aeebf2034af0ea4f5a63,678b1bdf6d0aefd65c71dcd2,678ea9b2d46dc84e86f4177d,,null,<img    src='G_2.jpg' height='90'> <img    src='G_6.jpg' height='90'> <img    src='G_5.jpg' height='90'> <img    src='G_1.jpg' height='90'> <img src='G_7.jpg' height='90'> <img src='G_8.jpg' height='90'> <img src='G_3.jpg' height='90'> <img src='G_4.jpg' height='90'>,null,Learning example 1,
,,,,,html-button-response,155,325055,0.0-138.0,10,1,2025-01-20 19:53:42,8e5ef0ea70509e21e61f535100ed03ac,206.251.202.37,Mozilla/5.0 (Windows NT 10.0; Win64; x64; rv:134.0) Gecko/20100101 Firefox/134.0,,Firefox,134.0,Windows,10.0,https://app.prolific.com/,"en-US,en;q=0.5",6772aeebf2034af0ea4f5a63,678b1bdf6d0aefd65c71dcd2,678ea9b2d46dc84e86f4177d,,null,<img    src='G_2.jpg' height='90'> <img    src='G_6.jpg' height='90'> <img    src='G_5.jpg' height='90'> <img id='selected'    src='G_1.jpg' height='90'> <img src='G_7.jpg' height='90'> <img src='G_8.jpg' height='90'> <img src='G_3.jpg' height='90'> <img src='G_4.jpg' height='90'>,null,Learning example 1,
,,,,,html-button-response,156,325393,0.0-139.0,10,1,2025-01-20 19:53:42,8e5ef0ea70509e21e61f535100ed03ac,206.251.202.37,Mozilla/5.0 (Windows NT 10.0; Win64; x64; rv:134.0) Gecko/20100101 Firefox/134.0,,Firefox,134.0,Windows,10.0,https://app.prolific.com/,"en-US,en;q=0.5",6772aeebf2034af0ea4f5a63,678b1bdf6d0aefd65c71dcd2,678ea9b2d46dc84e86f4177d,,null,<img    src='G_2.jpg' height='90'> <img    src='G_6.jpg' height='90'> <img    src='G_5.jpg' height='90'> <img id='selected'    src='G_1.jpg' height='90'> <img id='selected' src='G_7.jpg' height='90'> <img src='G_8.jpg' height='90'> <img src='G_3.jpg' height='90'> <img src='G_4.jpg' height='90'>,null,Learning example 1,
,,,,,html-button-response,157,325751,0.0-140.0,10,1,2025-01-20 19:53:42,8e5ef0ea70509e21e61f535100ed03ac,206.251.202.37,Mozilla/5.0 (Windows NT 10.0; Win64; x64; rv:134.0) Gecko/20100101 Firefox/134.0,,Firefox,134.0,Windows,10.0,https://app.prolific.com/,"en-US,en;q=0.5",6772aeebf2034af0ea4f5a63,678b1bdf6d0aefd65c71dcd2,678ea9b2d46dc84e86f4177d,,null,<img    src='G_2.jpg' height='90'> <img    src='G_6.jpg' height='90'> <img    src='G_5.jpg' height='90'> <img id='swapped' src='G_7.jpg' height='90'> <img id='swapped'    src='G_1.jpg' height='90'> <img src='G_8.jpg' height='90'> <img src='G_3.jpg' height='90'> <img src='G_4.jpg' height='90'>,null,Learning example 1,
,,,,,html-button-response,158,327254,0.0-141.0-0.0-0.0,10,1,2025-01-20 19:53:42,8e5ef0ea70509e21e61f535100ed03ac,206.251.202.37,Mozilla/5.0 (Windows NT 10.0; Win64; x64; rv:134.0) Gecko/20100101 Firefox/134.0,,Firefox,134.0,Windows,10.0,https://app.prolific.com/,"en-US,en;q=0.5",6772aeebf2034af0ea4f5a63,678b1bdf6d0aefd65c71dcd2,678ea9b2d46dc84e86f4177d,,1461,<img    src='G_2.jpg' height='90'> <img    src='G_6.jpg' height='90'> <img    src='G_5.jpg' height='90'> <img id='swapped' src='G_7.jpg' height='90'> <img id='swapped'    src='G_1.jpg' height='90'> <img src='G_8.jpg' height='90'> <img src='G_3.jpg' height='90'> <img src='G_4.jpg' height='90'>,3,Learning example 1,
,,,,,html-button-response,159,328192,0.0-141.1-0.1-0.1,10,1,2025-01-20 19:53:42,8e5ef0ea70509e21e61f535100ed03ac,206.251.202.37,Mozilla/5.0 (Windows NT 10.0; Win64; x64; rv:134.0) Gecko/20100101 Firefox/134.0,,Firefox,134.0,Windows,10.0,https://app.prolific.com/,"en-US,en;q=0.5",6772aeebf2034af0ea4f5a63,678b1bdf6d0aefd65c71dcd2,678ea9b2d46dc84e86f4177d,,920,<img    src='G_2.jpg' height='90'> <img    src='G_6.jpg' height='90'> <img    src='G_5.jpg' height='90'> <img id='swapped' src='G_7.jpg' height='90'> <img id='swapped'    src='G_1.jpg' height='90'> <img src='G_8.jpg' height='90'> <img src='G_3.jpg' height='90'> <img src='G_4.jpg' height='90'>,4,Learning example 1,
,,,,,html-button-response,160,328417,0.0-142.0,10,1,2025-01-20 19:53:42,8e5ef0ea70509e21e61f535100ed03ac,206.251.202.37,Mozilla/5.0 (Windows NT 10.0; Win64; x64; rv:134.0) Gecko/20100101 Firefox/134.0,,Firefox,134.0,Windows,10.0,https://app.prolific.com/,"en-US,en;q=0.5",6772aeebf2034af0ea4f5a63,678b1bdf6d0aefd65c71dcd2,678ea9b2d46dc84e86f4177d,,null,<img    src='G_2.jpg' height='90'> <img    src='G_6.jpg' height='90'> <img    src='G_5.jpg' height='90'> <img  src='G_7.jpg' height='90'> <img     src='G_1.jpg' height='90'> <img src='G_8.jpg' height='90'> <img src='G_3.jpg' height='90'> <img src='G_4.jpg' height='90'>,null,Learning example 1,
,,,,,html-button-response,161,328849,0.0-143.0,10,1,2025-01-20 19:53:42,8e5ef0ea70509e21e61f535100ed03ac,206.251.202.37,Mozilla/5.0 (Windows NT 10.0; Win64; x64; rv:134.0) Gecko/20100101 Firefox/134.0,,Firefox,134.0,Windows,10.0,https://app.prolific.com/,"en-US,en;q=0.5",6772aeebf2034af0ea4f5a63,678b1bdf6d0aefd65c71dcd2,678ea9b2d46dc84e86f4177d,,null,<img    src='G_2.jpg' height='90'> <img    src='G_6.jpg' height='90'> <img id='selected'    src='G_5.jpg' height='90'> <img  src='G_7.jpg' height='90'> <img     src='G_1.jpg' height='90'> <img src='G_8.jpg' height='90'> <img src='G_3.jpg' height='90'> <img src='G_4.jpg' height='90'>,null,Learning example 1,
,,,,,html-button-response,162,329188,0.0-144.0,10,1,2025-01-20 19:53:42,8e5ef0ea70509e21e61f535100ed03ac,206.251.202.37,Mozilla/5.0 (Windows NT 10.0; Win64; x64; rv:134.0) Gecko/20100101 Firefox/134.0,,Firefox,134.0,Windows,10.0,https://app.prolific.com/,"en-US,en;q=0.5",6772aeebf2034af0ea4f5a63,678b1bdf6d0aefd65c71dcd2,678ea9b2d46dc84e86f4177d,,null,<img    src='G_2.jpg' height='90'> <img    src='G_6.jpg' height='90'> <img id='selected'    src='G_5.jpg' height='90'> <img id='selected'  src='G_7.jpg' height='90'> <img     src='G_1.jpg' height='90'> <img src='G_8.jpg' height='90'> <img src='G_3.jpg' height='90'> <img src='G_4.jpg' height='90'>,null,Learning example 1,
