"success","timeout","failed_images","failed_audio","failed_video","trial_type","trial_index","time_elapsed","internal_node_id","run_id","condition","recorded_at","source_code_version","ip","user_agent","device","browser","browser_version","platform","platform_version","referer","accept_language","PROLIFIC_PID","STUDY_ID","SESSION_ID","view_history","rt","stimulus","response","phase","question_order"
"true","false","[]","[]","[]","preload","0","7664","0.0-0.0","13","1","2025-01-20 20:04:10","8e5ef0ea70509e21e61f535100ed03ac","206.251.200.220","Mozilla/5.0 (Windows NT 10.0; Win64; x64; rv:134.0) Gecko/20100101 Firefox/134.0","","Firefox","134.0","Windows","10.0","https://app.prolific.com/","en-US,en;q=0.5","677525639ae1d590af2ce48e","678b1bdf6d0aefd65c71dcd2","678eac126993576164e057a7","","","","","",""
"","","","","","instructions","1","52920","0.0-1.0","13","1","2025-01-20 20:04:10","8e5ef0ea70509e21e61f535100ed03ac","206.251.200.220","Mozilla/5.0 (Windows NT 10.0; Win64; x64; rv:134.0) Gecko/20100101 Firefox/134.0","","Firefox","134.0","Windows","10.0","https://app.prolific.com/","en-US,en;q=0.5","677525639ae1d590af2ce48e","678b1bdf6d0aefd65c71dcd2","678eac126993576164e057a7","[{""page_index"":0,""viewing_time"":45251}]","45251","","","",""
"","","","","","html-keyboard-response","2","53436","0.0-2.0","13","1","2025-01-20 20:04:10","8e5ef0ea70509e21e61f535100ed03ac","206.251.200.220","Mozilla/5.0 (Windows NT 10.0; Win64; x64; rv:134.0) Gecko/20100101 Firefox/134.0","","Firefox","134.0","Windows","10.0","https://app.prolific.com/","en-US,en;q=0.5","677525639ae1d590af2ce48e","678b1bdf6d0aefd65c71dcd2","678eac126993576164e057a7","","null","<p> + <p/>","null","",""
"","","","","","instructions","3","131316","0.0-3.0","13","1","2025-01-20 20:04:10","8e5ef0ea70509e21e61f535100ed03ac","206.251.200.220","Mozilla/5.0 (Windows NT 10.0; Win64; x64; rv:134.0) Gecko/20100101 Firefox/134.0","","Firefox","134.0","Windows","10.0","https://app.prolific.com/","en-US,en;q=0.5","677525639ae1d590af2ce48e","678b1bdf6d0aefd65c71dcd2","678eac126993576164e057a7","[{""page_index"":0,""viewing_time"":5028},{""page_index"":1,""viewing_time"":25832},{""page_index"":2,""viewing_time"":24178},{""page_index"":3,""viewing_time"":8470},{""page_index"":4,""viewing_time"":14371}]","77879","","","",""
"","","","","","html-button-response","4","138635","0.0-4.0-0.0-0.0","13","1","2025-01-20 20:04:10","8e5ef0ea70509e21e61f535100ed03ac","206.251.200.220","Mozilla/5.0 (Windows NT 10.0; Win64; x64; rv:134.0) Gecko/20100101 Firefox/134.0","","Firefox","134.0","Windows","10.0","https://app.prolific.com/","en-US,en;q=0.5","677525639ae1d590af2ce48e","678b1bdf6d0aefd65c71dcd2","678eac126993576164e057a7","","7315","","0","",""
"","","","","","html-button-response","5","142267","0.0-4.1-0.1-0.1","13","1","2025-01-20 20:04:10","8e5ef0ea70509e21e61f535100ed03ac","206.251.200.220","Mozilla/5.0 (Windows NT 10.0; Win64; x64; rv:134.0) Gecko/20100101 Firefox/134.0","","Firefox","134.0","Windows","10.0","https://app.prolific.com/","en-US,en;q=0.5","677525639ae1d590af2ce48e","678b1bdf6d0aefd65c71dcd2","678eac126993576164e057a7","","3628","","3","",""
"","","","","","html-button-response","6","175810","0.0-4.2-0.2-0.2","13","1","2025-01-20 20:04:10","8e5ef0ea70509e21e61f535100ed03ac","206.251.200.220","Mozilla/5.0 (Windows NT 10.0; Win64; x64; rv:134.0) Gecko/20100101 Firefox/134.0","","Firefox","134.0","Windows","10.0","https://app.prolific.com/","en-US,en;q=0.5","677525639ae1d590af2ce48e","678b1bdf6d0aefd65c71dcd2","678eac126993576164e057a7","","33539","","0","",""
"","","","","","html-button-response","7","177245","0.0-4.3-0.3-0.3","13","1","2025-01-20 20:04:10","8e5ef0ea70509e21e61f535100ed03ac","206.251.200.220","Mozilla/5.0 (Windows NT 10.0; Win64; x64; rv:134.0) Gecko/20100101 Firefox/134.0","","Firefox","134.0","Windows","10.0","https://app.prolific.com/","en-US,en;q=0.5","677525639ae1d590af2ce48e","678b1bdf6d0aefd65c71dcd2","678eac126993576164e057a7","","1432","","3","",""
"","","","","","html-button-response","8","178815","0.0-4.4-0.4-0.4","13","1","2025-01-20 20:04:10","8e5ef0ea70509e21e61f535100ed03ac","206.251.200.220","Mozilla/5.0 (Windows NT 10.0; Win64; x64; rv:134.0) Gecko/20100101 Firefox/134.0","","Firefox","134.0","Windows","10.0","https://app.prolific.com/","en-US,en;q=0.5","677525639ae1d590af2ce48e","678b1bdf6d0aefd65c71dcd2","678eac126993576164e057a7","","1567","","3","",""
"","","","","","html-button-response","9","180151","0.0-4.5-0.5-0.5","13","1","2025-01-20 20:04:10","8e5ef0ea70509e21e61f535100ed03ac","206.251.200.220","Mozilla/5.0 (Windows NT 10.0; Win64; x64; rv:134.0) Gecko/20100101 Firefox/134.0","","Firefox","134.0","Windows","10.0","https://app.prolific.com/","en-US,en;q=0.5","677525639ae1d590af2ce48e","678b1bdf6d0aefd65c71dcd2","678eac126993576164e057a7","","1334","","3","",""
"","","","","","html-button-response","10","182041","0.0-4.6-0.6-0.6","13","1","2025-01-20 20:04:10","8e5ef0ea70509e21e61f535100ed03ac","206.251.200.220","Mozilla/5.0 (Windows NT 10.0; Win64; x64; rv:134.0) Gecko/20100101 Firefox/134.0","","Firefox","134.0","Windows","10.0","https://app.prolific.com/","en-US,en;q=0.5","677525639ae1d590af2ce48e","678b1bdf6d0aefd65c71dcd2","678eac126993576164e057a7","","1886","","0","",""
"","","","","","html-button-response","11","204424","0.0-4.7-0.7-0.7","13","1","2025-01-20 20:04:10","8e5ef0ea70509e21e61f535100ed03ac","206.251.200.220","Mozilla/5.0 (Windows NT 10.0; Win64; x64; rv:134.0) Gecko/20100101 Firefox/134.0","","Firefox","134.0","Windows","10.0","https://app.prolific.com/","en-US,en;q=0.5","677525639ae1d590af2ce48e","678b1bdf6d0aefd65c71dcd2","678eac126993576164e057a7","","22380","","3","",""
"","","","","","html-button-response","12","206964","0.0-4.8-0.8-0.8","13","1","2025-01-20 20:04:10","8e5ef0ea70509e21e61f535100ed03ac","206.251.200.220","Mozilla/5.0 (Windows NT 10.0; Win64; x64; rv:134.0) Gecko/20100101 Firefox/134.0","","Firefox","134.0","Windows","10.0","https://app.prolific.com/","en-US,en;q=0.5","677525639ae1d590af2ce48e","678b1bdf6d0aefd65c71dcd2","678eac126993576164e057a7","","2537","","0","",""
"","","","","","html-button-response","13","208613","0.0-4.9-0.9-0.9","13","1","2025-01-20 20:04:10","8e5ef0ea70509e21e61f535100ed03ac","206.251.200.220","Mozilla/5.0 (Windows NT 10.0; Win64; x64; rv:134.0) Gecko/20100101 Firefox/134.0","","Firefox","134.0","Windows","10.0","https://app.prolific.com/","en-US,en;q=0.5","677525639ae1d590af2ce48e","678b1bdf6d0aefd65c71dcd2","678eac126993576164e057a7","","1647","","3","",""
"","","","","","html-button-response","14","210568","0.0-4.10-0.10-0.10","13","1","2025-01-20 20:04:10","8e5ef0ea70509e21e61f535100ed03ac","206.251.200.220","Mozilla/5.0 (Windows NT 10.0; Win64; x64; rv:134.0) Gecko/20100101 Firefox/134.0","","Firefox","134.0","Windows","10.0","https://app.prolific.com/","en-US,en;q=0.5","677525639ae1d590af2ce48e","678b1bdf6d0aefd65c71dcd2","678eac126993576164e057a7","","1953","","0","",""
"","","","","","html-button-response","15","211329","0.0-4.11-0.11-0.11","13","1","2025-01-20 20:04:10","8e5ef0ea70509e21e61f535100ed03ac","206.251.200.220","Mozilla/5.0 (Windows NT 10.0; Win64; x64; rv:134.0) Gecko/20100101 Firefox/134.0","","Firefox","134.0","Windows","10.0","https://app.prolific.com/","en-US,en;q=0.5","677525639ae1d590af2ce48e","678b1bdf6d0aefd65c71dcd2","678eac126993576164e057a7","","758","","1","",""
"","","","","","html-button-response","16","221647","0.0-4.12-0.12-0.12","13","1","2025-01-20 20:04:10","8e5ef0ea70509e21e61f535100ed03ac","206.251.200.220","Mozilla/5.0 (Windows NT 10.0; Win64; x64; rv:134.0) Gecko/20100101 Firefox/134.0","","Firefox","134.0","Windows","10.0","https://app.prolific.com/","en-US,en;q=0.5","677525639ae1d590af2ce48e","678b1bdf6d0aefd65c71dcd2","678eac126993576164e057a7","","10317","","3","",""
"","","","","","html-button-response","17","223114","0.0-4.13-0.13-0.13","13","1","2025-01-20 20:04:10","8e5ef0ea70509e21e61f535100ed03ac","206.251.200.220","Mozilla/5.0 (Windows NT 10.0; Win64; x64; rv:134.0) Gecko/20100101 Firefox/134.0","","Firefox","134.0","Windows","10.0","https://app.prolific.com/","en-US,en;q=0.5","677525639ae1d590af2ce48e","678b1bdf6d0aefd65c71dcd2","678eac126993576164e057a7","","1464","","0","",""
"","","","","","html-button-response","18","225100","0.0-4.14-0.14-0.14","13","1","2025-01-20 20:04:10","8e5ef0ea70509e21e61f535100ed03ac","206.251.200.220","Mozilla/5.0 (Windows NT 10.0; Win64; x64; rv:134.0) Gecko/20100101 Firefox/134.0","","Firefox","134.0","Windows","10.0","https://app.prolific.com/","en-US,en;q=0.5","677525639ae1d590af2ce48e","678b1bdf6d0aefd65c71dcd2","678eac126993576164e057a7","","1982","","0","",""
"","","","","","html-button-response","19","226280","0.0-4.15-0.15-0.15","13","1","2025-01-20 20:04:10","8e5ef0ea70509e21e61f535100ed03ac","206.251.200.220","Mozilla/5.0 (Windows NT 10.0; Win64; x64; rv:134.0) Gecko/20100101 Firefox/134.0","","Firefox","134.0","Windows","10.0","https://app.prolific.com/","en-US,en;q=0.5","677525639ae1d590af2ce48e","678b1bdf6d0aefd65c71dcd2","678eac126993576164e057a7","","1179","","0","",""
"","","","","","html-button-response","20","226499","0.0-4.16-0.16-0.16","13","1","2025-01-20 20:04:10","8e5ef0ea70509e21e61f535100ed03ac","206.251.200.220","Mozilla/5.0 (Windows NT 10.0; Win64; x64; rv:134.0) Gecko/20100101 Firefox/134.0","","Firefox","134.0","Windows","10.0","https://app.prolific.com/","en-US,en;q=0.5","677525639ae1d590af2ce48e","678b1bdf6d0aefd65c71dcd2","678eac126993576164e057a7","","216","","0","",""
"","","","","","html-button-response","21","227949","0.0-4.17-0.17-0.17","13","1","2025-01-20 20:04:10","8e5ef0ea70509e21e61f535100ed03ac","206.251.200.220","Mozilla/5.0 (Windows NT 10.0; Win64; x64; rv:134.0) Gecko/20100101 Firefox/134.0","","Firefox","134.0","Windows","10.0","https://app.prolific.com/","en-US,en;q=0.5","677525639ae1d590af2ce48e","678b1bdf6d0aefd65c71dcd2","678eac126993576164e057a7","","1448","","3","",""
"","","","","","html-button-response","22","229954","0.0-4.18-0.18-0.18","13","1","2025-01-20 20:04:10","8e5ef0ea70509e21e61f535100ed03ac","206.251.200.220","Mozilla/5.0 (Windows NT 10.0; Win64; x64; rv:134.0) Gecko/20100101 Firefox/134.0","","Firefox","134.0","Windows","10.0","https://app.prolific.com/","en-US,en;q=0.5","677525639ae1d590af2ce48e","678b1bdf6d0aefd65c71dcd2","678eac126993576164e057a7","","2002","","0","",""
"","","","","","html-button-response","23","230613","0.0-4.19-0.19-0.19","13","1","2025-01-20 20:04:10","8e5ef0ea70509e21e61f535100ed03ac","206.251.200.220","Mozilla/5.0 (Windows NT 10.0; Win64; x64; rv:134.0) Gecko/20100101 Firefox/134.0","","Firefox","134.0","Windows","10.0","https://app.prolific.com/","en-US,en;q=0.5","677525639ae1d590af2ce48e","678b1bdf6d0aefd65c71dcd2","678eac126993576164e057a7","","657","","0","",""
"","","","","","html-button-response","24","234017","0.0-4.20-0.20-0.20","13","1","2025-01-20 20:04:10","8e5ef0ea70509e21e61f535100ed03ac","206.251.200.220","Mozilla/5.0 (Windows NT 10.0; Win64; x64; rv:134.0) Gecko/20100101 Firefox/134.0","","Firefox","134.0","Windows","10.0","https://app.prolific.com/","en-US,en;q=0.5","677525639ae1d590af2ce48e","678b1bdf6d0aefd65c71dcd2","678eac126993576164e057a7","","3401","","2","",""
"","","","","","html-button-response","25","236122","0.0-4.21-0.21-0.21","13","1","2025-01-20 20:04:10","8e5ef0ea70509e21e61f535100ed03ac","206.251.200.220","Mozilla/5.0 (Windows NT 10.0; Win64; x64; rv:134.0) Gecko/20100101 Firefox/134.0","","Firefox","134.0","Windows","10.0","https://app.prolific.com/","en-US,en;q=0.5","677525639ae1d590af2ce48e","678b1bdf6d0aefd65c71dcd2","678eac126993576164e057a7","","2104","","4","",""
"","","","","","html-button-response","26","241732","0.0-4.22-0.22-0.22","13","1","2025-01-20 20:04:10","8e5ef0ea70509e21e61f535100ed03ac","206.251.200.220","Mozilla/5.0 (Windows NT 10.0; Win64; x64; rv:134.0) Gecko/20100101 Firefox/134.0","","Firefox","134.0","Windows","10.0","https://app.prolific.com/","en-US,en;q=0.5","677525639ae1d590af2ce48e","678b1bdf6d0aefd65c71dcd2","678eac126993576164e057a7","","5607","","3","",""
"","","","","","html-button-response","27","243196","0.0-4.23-0.23-0.23","13","1","2025-01-20 20:04:10","8e5ef0ea70509e21e61f535100ed03ac","206.251.200.220","Mozilla/5.0 (Windows NT 10.0; Win64; x64; rv:134.0) Gecko/20100101 Firefox/134.0","","Firefox","134.0","Windows","10.0","https://app.prolific.com/","en-US,en;q=0.5","677525639ae1d590af2ce48e","678b1bdf6d0aefd65c71dcd2","678eac126993576164e057a7","","1462","","2","",""
"","","","","","html-button-response","28","244438","0.0-4.24-0.24-0.24","13","1","2025-01-20 20:04:10","8e5ef0ea70509e21e61f535100ed03ac","206.251.200.220","Mozilla/5.0 (Windows NT 10.0; Win64; x64; rv:134.0) Gecko/20100101 Firefox/134.0","","Firefox","134.0","Windows","10.0","https://app.prolific.com/","en-US,en;q=0.5","677525639ae1d590af2ce48e","678b1bdf6d0aefd65c71dcd2","678eac126993576164e057a7","","1239","","2","",""
"","","","","","html-button-response","29","245810","0.0-4.25-0.25-0.25","13","1","2025-01-20 20:04:10","8e5ef0ea70509e21e61f535100ed03ac","206.251.200.220","Mozilla/5.0 (Windows NT 10.0; Win64; x64; rv:134.0) Gecko/20100101 Firefox/134.0","","Firefox","134.0","Windows","10.0","https://app.prolific.com/","en-US,en;q=0.5","677525639ae1d590af2ce48e","678b1bdf6d0aefd65c71dcd2","678eac126993576164e057a7","","1369","","3","",""
"","","","","","html-button-response","30","249913","0.0-4.26-0.26-0.26","13","1","2025-01-20 20:04:10","8e5ef0ea70509e21e61f535100ed03ac","206.251.200.220","Mozilla/5.0 (Windows NT 10.0; Win64; x64; rv:134.0) Gecko/20100101 Firefox/134.0","","Firefox","134.0","Windows","10.0","https://app.prolific.com/","en-US,en;q=0.5","677525639ae1d590af2ce48e","678b1bdf6d0aefd65c71dcd2","678eac126993576164e057a7","","4101","","1","",""
"","","","","","html-button-response","31","251096","0.0-4.27-0.27-0.27","13","1","2025-01-20 20:04:10","8e5ef0ea70509e21e61f535100ed03ac","206.251.200.220","Mozilla/5.0 (Windows NT 10.0; Win64; x64; rv:134.0) Gecko/20100101 Firefox/134.0","","Firefox","134.0","Windows","10.0","https://app.prolific.com/","en-US,en;q=0.5","677525639ae1d590af2ce48e","678b1bdf6d0aefd65c71dcd2","678eac126993576164e057a7","","1181","","0","",""
"","","","","","html-button-response","32","251914","0.0-4.28-0.28-0.28","13","1","2025-01-20 20:04:10","8e5ef0ea70509e21e61f535100ed03ac","206.251.200.220","Mozilla/5.0 (Windows NT 10.0; Win64; x64; rv:134.0) Gecko/20100101 Firefox/134.0","","Firefox","134.0","Windows","10.0","https://app.prolific.com/","en-US,en;q=0.5","677525639ae1d590af2ce48e","678b1bdf6d0aefd65c71dcd2","678eac126993576164e057a7","","815","","0","",""
"","","","","","html-button-response","33","253065","0.0-4.29-0.29-0.29","13","1","2025-01-20 20:04:10","8e5ef0ea70509e21e61f535100ed03ac","206.251.200.220","Mozilla/5.0 (Windows NT 10.0; Win64; x64; rv:134.0) Gecko/20100101 Firefox/134.0","","Firefox","134.0","Windows","10.0","https://app.prolific.com/","en-US,en;q=0.5","677525639ae1d590af2ce48e","678b1bdf6d0aefd65c71dcd2","678eac126993576164e057a7","","1148","","0","",""
"","","","","","html-button-response","34","253281","0.0-4.30-0.30-0.30","13","1","2025-01-20 20:04:10","8e5ef0ea70509e21e61f535100ed03ac","206.251.200.220","Mozilla/5.0 (Windows NT 10.0; Win64; x64; rv:134.0) Gecko/20100101 Firefox/134.0","","Firefox","134.0","Windows","10.0","https://app.prolific.com/","en-US,en;q=0.5","677525639ae1d590af2ce48e","678b1bdf6d0aefd65c71dcd2","678eac126993576164e057a7","","214","","0","",""
"","","","","","html-button-response","35","254414","0.0-4.31-0.31-0.31","13","1","2025-01-20 20:04:10","8e5ef0ea70509e21e61f535100ed03ac","206.251.200.220","Mozilla/5.0 (Windows NT 10.0; Win64; x64; rv:134.0) Gecko/20100101 Firefox/134.0","","Firefox","134.0","Windows","10.0","https://app.prolific.com/","en-US,en;q=0.5","677525639ae1d590af2ce48e","678b1bdf6d0aefd65c71dcd2","678eac126993576164e057a7","","1130","","1","",""
"","","","","","html-button-response","36","255241","0.0-4.32-0.32-0.32","13","1","2025-01-20 20:04:10","8e5ef0ea70509e21e61f535100ed03ac","206.251.200.220","Mozilla/5.0 (Windows NT 10.0; Win64; x64; rv:134.0) Gecko/20100101 Firefox/134.0","","Firefox","134.0","Windows","10.0","https://app.prolific.com/","en-US,en;q=0.5","677525639ae1d590af2ce48e","678b1bdf6d0aefd65c71dcd2","678eac126993576164e057a7","","824","","1","",""
"","","","","","html-button-response","37","255454","0.0-4.33-0.33-0.33","13","1","2025-01-20 20:04:10","8e5ef0ea70509e21e61f535100ed03ac","206.251.200.220","Mozilla/5.0 (Windows NT 10.0; Win64; x64; rv:134.0) Gecko/20100101 Firefox/134.0","","Firefox","134.0","Windows","10.0","https://app.prolific.com/","en-US,en;q=0.5","677525639ae1d590af2ce48e","678b1bdf6d0aefd65c71dcd2","678eac126993576164e057a7","","210","","1","",""
"","","","","","html-button-response","38","255919","0.0-4.34-0.34-0.34","13","1","2025-01-20 20:04:10","8e5ef0ea70509e21e61f535100ed03ac","206.251.200.220","Mozilla/5.0 (Windows NT 10.0; Win64; x64; rv:134.0) Gecko/20100101 Firefox/134.0","","Firefox","134.0","Windows","10.0","https://app.prolific.com/","en-US,en;q=0.5","677525639ae1d590af2ce48e","678b1bdf6d0aefd65c71dcd2","678eac126993576164e057a7","","462","","1","",""
"","","","","","html-button-response","39","256133","0.0-4.35-0.35-0.35","13","1","2025-01-20 20:04:10","8e5ef0ea70509e21e61f535100ed03ac","206.251.200.220","Mozilla/5.0 (Windows NT 10.0; Win64; x64; rv:134.0) Gecko/20100101 Firefox/134.0","","Firefox","134.0","Windows","10.0","https://app.prolific.com/","en-US,en;q=0.5","677525639ae1d590af2ce48e","678b1bdf6d0aefd65c71dcd2","678eac126993576164e057a7","","210","","1","",""
"","","","","","html-button-response","40","259361","0.0-4.36-0.36-0.36","13","1","2025-01-20 20:04:10","8e5ef0ea70509e21e61f535100ed03ac","206.251.200.220","Mozilla/5.0 (Windows NT 10.0; Win64; x64; rv:134.0) Gecko/20100101 Firefox/134.0","","Firefox","134.0","Windows","10.0","https://app.prolific.com/","en-US,en;q=0.5","677525639ae1d590af2ce48e","678b1bdf6d0aefd65c71dcd2","678eac126993576164e057a7","","3225","","3","",""
"","","","","","html-button-response","41","260744","0.0-4.37-0.37-0.37","13","1","2025-01-20 20:04:10","8e5ef0ea70509e21e61f535100ed03ac","206.251.200.220","Mozilla/5.0 (Windows NT 10.0; Win64; x64; rv:134.0) Gecko/20100101 Firefox/134.0","","Firefox","134.0","Windows","10.0","https://app.prolific.com/","en-US,en;q=0.5","677525639ae1d590af2ce48e","678b1bdf6d0aefd65c71dcd2","678eac126993576164e057a7","","1380","","2","",""
"","","","","","html-button-response","42","261642","0.0-4.38-0.38-0.38","13","1","2025-01-20 20:04:10","8e5ef0ea70509e21e61f535100ed03ac","206.251.200.220","Mozilla/5.0 (Windows NT 10.0; Win64; x64; rv:134.0) Gecko/20100101 Firefox/134.0","","Firefox","134.0","Windows","10.0","https://app.prolific.com/","en-US,en;q=0.5","677525639ae1d590af2ce48e","678b1bdf6d0aefd65c71dcd2","678eac126993576164e057a7","","895","","2","",""
"","","","","","html-button-response","43","263499","0.0-4.39-0.39-0.39","13","1","2025-01-20 20:04:10","8e5ef0ea70509e21e61f535100ed03ac","206.251.200.220","Mozilla/5.0 (Windows NT 10.0; Win64; x64; rv:134.0) Gecko/20100101 Firefox/134.0","","Firefox","134.0","Windows","10.0","https://app.prolific.com/","en-US,en;q=0.5","677525639ae1d590af2ce48e","678b1bdf6d0aefd65c71dcd2","678eac126993576164e057a7","","1854","","3","",""
"","","","","","html-button-response","44","267566","0.0-4.40-0.40-0.40","13","1","2025-01-20 20:04:10","8e5ef0ea70509e21e61f535100ed03ac","206.251.200.220","Mozilla/5.0 (Windows NT 10.0; Win64; x64; rv:134.0) Gecko/20100101 Firefox/134.0","","Firefox","134.0","Windows","10.0","https://app.prolific.com/","en-US,en;q=0.5","677525639ae1d590af2ce48e","678b1bdf6d0aefd65c71dcd2","678eac126993576164e057a7","","4063","","3","",""
"","","","","","html-button-response","45","268845","0.0-4.41-0.41-0.41","13","1","2025-01-20 20:04:10","8e5ef0ea70509e21e61f535100ed03ac","206.251.200.220","Mozilla/5.0 (Windows NT 10.0; Win64; x64; rv:134.0) Gecko/20100101 Firefox/134.0","","Firefox","134.0","Windows","10.0","https://app.prolific.com/","en-US,en;q=0.5","677525639ae1d590af2ce48e","678b1bdf6d0aefd65c71dcd2","678eac126993576164e057a7","","1277","","2","",""
"","","","","","html-button-response","46","269823","0.0-4.42-0.42-0.42","13","1","2025-01-20 20:04:10","8e5ef0ea70509e21e61f535100ed03ac","206.251.200.220","Mozilla/5.0 (Windows NT 10.0; Win64; x64; rv:134.0) Gecko/20100101 Firefox/134.0","","Firefox","134.0","Windows","10.0","https://app.prolific.com/","en-US,en;q=0.5","677525639ae1d590af2ce48e","678b1bdf6d0aefd65c71dcd2","678eac126993576164e057a7","","975","","2","",""
"","","","","","html-button-response","47","271084","0.0-4.43-0.43-0.43","13","1","2025-01-20 20:04:10","8e5ef0ea70509e21e61f535100ed03ac","206.251.200.220","Mozilla/5.0 (Windows NT 10.0; Win64; x64; rv:134.0) Gecko/20100101 Firefox/134.0","","Firefox","134.0","Windows","10.0","https://app.prolific.com/","en-US,en;q=0.5","677525639ae1d590af2ce48e","678b1bdf6d0aefd65c71dcd2","678eac126993576164e057a7","","1257","","2","",""
"","","","","","html-button-response","48","271999","0.0-4.44-0.44-0.44","13","1","2025-01-20 20:04:10","8e5ef0ea70509e21e61f535100ed03ac","206.251.200.220","Mozilla/5.0 (Windows NT 10.0; Win64; x64; rv:134.0) Gecko/20100101 Firefox/134.0","","Firefox","134.0","Windows","10.0","https://app.prolific.com/","en-US,en;q=0.5","677525639ae1d590af2ce48e","678b1bdf6d0aefd65c71dcd2","678eac126993576164e057a7","","911","","3","",""
"","","","","","html-button-response","49","272717","0.0-4.45-0.45-0.45","13","1","2025-01-20 20:04:10","8e5ef0ea70509e21e61f535100ed03ac","206.251.200.220","Mozilla/5.0 (Windows NT 10.0; Win64; x64; rv:134.0) Gecko/20100101 Firefox/134.0","","Firefox","134.0","Windows","10.0","https://app.prolific.com/","en-US,en;q=0.5","677525639ae1d590af2ce48e","678b1bdf6d0aefd65c71dcd2","678eac126993576164e057a7","","715","","3","",""
"","","","","","html-button-response","50","272925","0.0-4.46-0.46-0.46","13","1","2025-01-20 20:04:10","8e5ef0ea70509e21e61f535100ed03ac","206.251.200.220","Mozilla/5.0 (Windows NT 10.0; Win64; x64; rv:134.0) Gecko/20100101 Firefox/134.0","","Firefox","134.0","Windows","10.0","https://app.prolific.com/","en-US,en;q=0.5","677525639ae1d590af2ce48e","678b1bdf6d0aefd65c71dcd2","678eac126993576164e057a7","","205","","3","",""
"","","","","","html-button-response","51","275492","0.0-4.47-0.47-0.47","13","1","2025-01-20 20:04:10","8e5ef0ea70509e21e61f535100ed03ac","206.251.200.220","Mozilla/5.0 (Windows NT 10.0; Win64; x64; rv:134.0) Gecko/20100101 Firefox/134.0","","Firefox","134.0","Windows","10.0","https://app.prolific.com/","en-US,en;q=0.5","677525639ae1d590af2ce48e","678b1bdf6d0aefd65c71dcd2","678eac126993576164e057a7","","2563","","2","",""
"","","","","","html-button-response","52","276354","0.0-4.48-0.48-0.48","13","1","2025-01-20 20:04:10","8e5ef0ea70509e21e61f535100ed03ac","206.251.200.220","Mozilla/5.0 (Windows NT 10.0; Win64; x64; rv:134.0) Gecko/20100101 Firefox/134.0","","Firefox","134.0","Windows","10.0","https://app.prolific.com/","en-US,en;q=0.5","677525639ae1d590af2ce48e","678b1bdf6d0aefd65c71dcd2","678eac126993576164e057a7","","859","","2","",""
"","","","","","html-button-response","53","276578","0.0-4.49-0.49-0.49","13","1","2025-01-20 20:04:10","8e5ef0ea70509e21e61f535100ed03ac","206.251.200.220","Mozilla/5.0 (Windows NT 10.0; Win64; x64; rv:134.0) Gecko/20100101 Firefox/134.0","","Firefox","134.0","Windows","10.0","https://app.prolific.com/","en-US,en;q=0.5","677525639ae1d590af2ce48e","678b1bdf6d0aefd65c71dcd2","678eac126993576164e057a7","","219","","2","",""
"","","","","","html-button-response","54","299866","0.0-4.50-0.50-0.50","13","1","2025-01-20 20:04:10","8e5ef0ea70509e21e61f535100ed03ac","206.251.200.220","Mozilla/5.0 (Windows NT 10.0; Win64; x64; rv:134.0) Gecko/20100101 Firefox/134.0","","Firefox","134.0","Windows","10.0","https://app.prolific.com/","en-US,en;q=0.5","677525639ae1d590af2ce48e","678b1bdf6d0aefd65c71dcd2","678eac126993576164e057a7","","23285","","1","",""
"","","","","","html-button-response","55","301377","0.0-4.51-0.51-0.51","13","1","2025-01-20 20:04:10","8e5ef0ea70509e21e61f535100ed03ac","206.251.200.220","Mozilla/5.0 (Windows NT 10.0; Win64; x64; rv:134.0) Gecko/20100101 Firefox/134.0","","Firefox","134.0","Windows","10.0","https://app.prolific.com/","en-US,en;q=0.5","677525639ae1d590af2ce48e","678b1bdf6d0aefd65c71dcd2","678eac126993576164e057a7","","1507","","0","",""
"","","","","","html-button-response","56","302462","0.0-4.52-0.52-0.52","13","1","2025-01-20 20:04:10","8e5ef0ea70509e21e61f535100ed03ac","206.251.200.220","Mozilla/5.0 (Windows NT 10.0; Win64; x64; rv:134.0) Gecko/20100101 Firefox/134.0","","Firefox","134.0","Windows","10.0","https://app.prolific.com/","en-US,en;q=0.5","677525639ae1d590af2ce48e","678b1bdf6d0aefd65c71dcd2","678eac126993576164e057a7","","1082","","0","",""
"","","","","","html-button-response","57","303867","0.0-4.53-0.53-0.53","13","1","2025-01-20 20:04:10","8e5ef0ea70509e21e61f535100ed03ac","206.251.200.220","Mozilla/5.0 (Windows NT 10.0; Win64; x64; rv:134.0) Gecko/20100101 Firefox/134.0","","Firefox","134.0","Windows","10.0","https://app.prolific.com/","en-US,en;q=0.5","677525639ae1d590af2ce48e","678b1bdf6d0aefd65c71dcd2","678eac126993576164e057a7","","1401","","1","",""
"","","","","","html-button-response","58","305797","0.0-4.54-0.54-0.54","13","1","2025-01-20 20:04:10","8e5ef0ea70509e21e61f535100ed03ac","206.251.200.220","Mozilla/5.0 (Windows NT 10.0; Win64; x64; rv:134.0) Gecko/20100101 Firefox/134.0","","Firefox","134.0","Windows","10.0","https://app.prolific.com/","en-US,en;q=0.5","677525639ae1d590af2ce48e","678b1bdf6d0aefd65c71dcd2","678eac126993576164e057a7","","1926","","2","",""
"","","","","","html-button-response","59","306869","0.0-4.55-0.55-0.55","13","1","2025-01-20 20:04:10","8e5ef0ea70509e21e61f535100ed03ac","206.251.200.220","Mozilla/5.0 (Windows NT 10.0; Win64; x64; rv:134.0) Gecko/20100101 Firefox/134.0","","Firefox","134.0","Windows","10.0","https://app.prolific.com/","en-US,en;q=0.5","677525639ae1d590af2ce48e","678b1bdf6d0aefd65c71dcd2","678eac126993576164e057a7","","1070","","1","",""
"","","","","","html-button-response","60","312400","0.0-4.56-0.56-0.56","13","1","2025-01-20 20:04:10","8e5ef0ea70509e21e61f535100ed03ac","206.251.200.220","Mozilla/5.0 (Windows NT 10.0; Win64; x64; rv:134.0) Gecko/20100101 Firefox/134.0","","Firefox","134.0","Windows","10.0","https://app.prolific.com/","en-US,en;q=0.5","677525639ae1d590af2ce48e","678b1bdf6d0aefd65c71dcd2","678eac126993576164e057a7","","5527","","2","",""
"","","","","","html-button-response","61","313474","0.0-4.57-0.57-0.57","13","1","2025-01-20 20:04:10","8e5ef0ea70509e21e61f535100ed03ac","206.251.200.220","Mozilla/5.0 (Windows NT 10.0; Win64; x64; rv:134.0) Gecko/20100101 Firefox/134.0","","Firefox","134.0","Windows","10.0","https://app.prolific.com/","en-US,en;q=0.5","677525639ae1d590af2ce48e","678b1bdf6d0aefd65c71dcd2","678eac126993576164e057a7","","1069","","1","",""
"","","","","","html-button-response","62","314338","0.0-4.58-0.58-0.58","13","1","2025-01-20 20:04:10","8e5ef0ea70509e21e61f535100ed03ac","206.251.200.220","Mozilla/5.0 (Windows NT 10.0; Win64; x64; rv:134.0) Gecko/20100101 Firefox/134.0","","Firefox","134.0","Windows","10.0","https://app.prolific.com/","en-US,en;q=0.5","677525639ae1d590af2ce48e","678b1bdf6d0aefd65c71dcd2","678eac126993576164e057a7","","861","","1","",""
"","","","","","html-button-response","63","315267","0.0-4.59-0.59-0.59","13","1","2025-01-20 20:04:10","8e5ef0ea70509e21e61f535100ed03ac","206.251.200.220","Mozilla/5.0 (Windows NT 10.0; Win64; x64; rv:134.0) Gecko/20100101 Firefox/134.0","","Firefox","134.0","Windows","10.0","https://app.prolific.com/","en-US,en;q=0.5","677525639ae1d590af2ce48e","678b1bdf6d0aefd65c71dcd2","678eac126993576164e057a7","","924","","2","",""
"","","","","","html-button-response","64","323401","0.0-4.60-0.60-0.60","13","1","2025-01-20 20:04:10","8e5ef0ea70509e21e61f535100ed03ac","206.251.200.220","Mozilla/5.0 (Windows NT 10.0; Win64; x64; rv:134.0) Gecko/20100101 Firefox/134.0","","Firefox","134.0","Windows","10.0","https://app.prolific.com/","en-US,en;q=0.5","677525639ae1d590af2ce48e","678b1bdf6d0aefd65c71dcd2","678eac126993576164e057a7","","8131","","5","",""
"","","","","","html-keyboard-response","65","343839","0.0-5.0","13","1","2025-01-20 20:04:10","8e5ef0ea70509e21e61f535100ed03ac","206.251.200.220","Mozilla/5.0 (Windows NT 10.0; Win64; x64; rv:134.0) Gecko/20100101 Firefox/134.0","","Firefox","134.0","Windows","10.0","https://app.prolific.com/","en-US,en;q=0.5","677525639ae1d590af2ce48e","678b1bdf6d0aefd65c71dcd2","678eac126993576164e057a7","","20435","[""You sorted incorrectly by using the balance 21 times. <br><br> <img src='G_2.jpg' height='90'><img src='G_5.jpg' height='90'><img src='G_1.jpg' height='90'><img src='G_4.jpg' height='90'><img src='G_3.jpg' height='90'><br><br> Your final order is 2,1,4,5,3<br><br><br>Omgne Sort in this game will allow you to sort correctly by using the balance 8 times. Press Enter to learn it!""]","enter","",""
"","","","","","html-keyboard-response","66","351393","0.0-6.0","13","1","2025-01-20 20:04:10","8e5ef0ea70509e21e61f535100ed03ac","206.251.200.220","Mozilla/5.0 (Windows NT 10.0; Win64; x64; rv:134.0) Gecko/20100101 Firefox/134.0","","Firefox","134.0","Windows","10.0","https://app.prolific.com/","en-US,en;q=0.5","677525639ae1d590af2ce48e","678b1bdf6d0aefd65c71dcd2","678eac126993576164e057a7","","7551","<p>Welcome to the learning phase! <br><br> You will learn by six examples. The following learning trials will not be used to calculate your performance. <br><br> Press Enter to continue.<p/>","pagedown","",""
"","","","","","html-keyboard-response","67","351403","0.0-7.0","13","1","2025-01-20 20:04:10","8e5ef0ea70509e21e61f535100ed03ac","206.251.200.220","Mozilla/5.0 (Windows NT 10.0; Win64; x64; rv:134.0) Gecko/20100101 Firefox/134.0","","Firefox","134.0","Windows","10.0","https://app.prolific.com/","en-US,en;q=0.5","677525639ae1d590af2ce48e","678b1bdf6d0aefd65c71dcd2","678eac126993576164e057a7","","7","[""Example 1<br><br>You will watch Omnge Sort in action. Try to identify any patterns in the comparisons made by this method. <br><br>Press Enter to continue.""]","enter","",""
"","","","","","html-keyboard-response","68","351913","0.0-8.0","13","1","2025-01-20 20:04:10","8e5ef0ea70509e21e61f535100ed03ac","206.251.200.220","Mozilla/5.0 (Windows NT 10.0; Win64; x64; rv:134.0) Gecko/20100101 Firefox/134.0","","Firefox","134.0","Windows","10.0","https://app.prolific.com/","en-US,en;q=0.5","677525639ae1d590af2ce48e","678b1bdf6d0aefd65c71dcd2","678eac126993576164e057a7","","null","<img id='selected' src='G_1.jpg' height='90'> <img src='G_3.jpg' height='90'> <img src='G_9.jpg' height='90'> <img src='G_5.jpg' height='90'> <img src='G_7.jpg' height='90'>","null","Animation0",""
"","","","","","html-keyboard-response","69","352432","0.0-9.0","13","1","2025-01-20 20:04:10","8e5ef0ea70509e21e61f535100ed03ac","206.251.200.220","Mozilla/5.0 (Windows NT 10.0; Win64; x64; rv:134.0) Gecko/20100101 Firefox/134.0","","Firefox","134.0","Windows","10.0","https://app.prolific.com/","en-US,en;q=0.5","677525639ae1d590af2ce48e","678b1bdf6d0aefd65c71dcd2","678eac126993576164e057a7","","null","<img id='selected' src='G_1.jpg' height='90'> <img id='selected' src='G_3.jpg' height='90'> <img src='G_9.jpg' height='90'> <img src='G_5.jpg' height='90'> <img src='G_7.jpg' height='90'>","null","Animation0",""
"","","","","","html-keyboard-response","70","352949","0.0-10.0","13","1","2025-01-20 20:04:10","8e5ef0ea70509e21e61f535100ed03ac","206.251.200.220","Mozilla/5.0 (Windows NT 10.0; Win64; x64; rv:134.0) Gecko/20100101 Firefox/134.0","","Firefox","134.0","Windows","10.0","https://app.prolific.com/","en-US,en;q=0.5","677525639ae1d590af2ce48e","678b1bdf6d0aefd65c71dcd2","678eac126993576164e057a7","","null","<img id='swapped' src='G_3.jpg' height='90'> <img id='swapped' src='G_1.jpg' height='90'> <img src='G_9.jpg' height='90'> <img src='G_5.jpg' height='90'> <img src='G_7.jpg' height='90'>","null","Animation0",""
"","","","","","html-keyboard-response","71","353264","0.0-11.0","13","1","2025-01-20 20:04:10","8e5ef0ea70509e21e61f535100ed03ac","206.251.200.220","Mozilla/5.0 (Windows NT 10.0; Win64; x64; rv:134.0) Gecko/20100101 Firefox/134.0","","Firefox","134.0","Windows","10.0","https://app.prolific.com/","en-US,en;q=0.5","677525639ae1d590af2ce48e","678b1bdf6d0aefd65c71dcd2","678eac126993576164e057a7","","null","<img  src='G_3.jpg' height='90'> <img  src='G_1.jpg' height='90'> <img src='G_9.jpg' height='90'> <img src='G_5.jpg' height='90'> <img src='G_7.jpg' height='90'>","null","Animation0",""
"","","","","","html-keyboard-response","72","353782","0.0-12.0","13","1","2025-01-20 20:04:10","8e5ef0ea70509e21e61f535100ed03ac","206.251.200.220","Mozilla/5.0 (Windows NT 10.0; Win64; x64; rv:134.0) Gecko/20100101 Firefox/134.0","","Firefox","134.0","Windows","10.0","https://app.prolific.com/","en-US,en;q=0.5","677525639ae1d590af2ce48e","678b1bdf6d0aefd65c71dcd2","678eac126993576164e057a7","","null","<img  src='G_3.jpg' height='90'> <img id='selected'  src='G_1.jpg' height='90'> <img src='G_9.jpg' height='90'> <img src='G_5.jpg' height='90'> <img src='G_7.jpg' height='90'>","null","Animation0",""
"","","","","","html-keyboard-response","73","354301","0.0-13.0","13","1","2025-01-20 20:04:10","8e5ef0ea70509e21e61f535100ed03ac","206.251.200.220","Mozilla/5.0 (Windows NT 10.0; Win64; x64; rv:134.0) Gecko/20100101 Firefox/134.0","","Firefox","134.0","Windows","10.0","https://app.prolific.com/","en-US,en;q=0.5","677525639ae1d590af2ce48e","678b1bdf6d0aefd65c71dcd2","678eac126993576164e057a7","","null","<img  src='G_3.jpg' height='90'> <img id='selected'  src='G_1.jpg' height='90'> <img id='selected' src='G_9.jpg' height='90'> <img src='G_5.jpg' height='90'> <img src='G_7.jpg' height='90'>","null","Animation0",""
"","","","","","html-keyboard-response","74","354804","0.0-14.0","13","1","2025-01-20 20:04:10","8e5ef0ea70509e21e61f535100ed03ac","206.251.200.220","Mozilla/5.0 (Windows NT 10.0; Win64; x64; rv:134.0) Gecko/20100101 Firefox/134.0","","Firefox","134.0","Windows","10.0","https://app.prolific.com/","en-US,en;q=0.5","677525639ae1d590af2ce48e","678b1bdf6d0aefd65c71dcd2","678eac126993576164e057a7","","null","<img  src='G_3.jpg' height='90'> <img id='selected'  src='G_1.jpg' height='90'> <img id='selected' src='G_9.jpg' height='90'> <img src='G_5.jpg' height='90'> <img src='G_7.jpg' height='90'>","null","Animation0",""
"","","","","","html-keyboard-response","75","355118","0.0-15.0","13","1","2025-01-20 20:04:10","8e5ef0ea70509e21e61f535100ed03ac","206.251.200.220","Mozilla/5.0 (Windows NT 10.0; Win64; x64; rv:134.0) Gecko/20100101 Firefox/134.0","","Firefox","134.0","Windows","10.0","https://app.prolific.com/","en-US,en;q=0.5","677525639ae1d590af2ce48e","678b1bdf6d0aefd65c71dcd2","678eac126993576164e057a7","","null","<img  src='G_3.jpg' height='90'> <img   src='G_1.jpg' height='90'> <img  src='G_9.jpg' height='90'> <img src='G_5.jpg' height='90'> <img src='G_7.jpg' height='90'>","null","Animation0",""
"","","","","","html-keyboard-response","76","355637","0.0-16.0","13","1","2025-01-20 20:04:10","8e5ef0ea70509e21e61f535100ed03ac","206.251.200.220","Mozilla/5.0 (Windows NT 10.0; Win64; x64; rv:134.0) Gecko/20100101 Firefox/134.0","","Firefox","134.0","Windows","10.0","https://app.prolific.com/","en-US,en;q=0.5","677525639ae1d590af2ce48e","678b1bdf6d0aefd65c71dcd2","678eac126993576164e057a7","","null","<img  src='G_3.jpg' height='90'> <img   src='G_1.jpg' height='90'> <img id='selected'  src='G_9.jpg' height='90'> <img src='G_5.jpg' height='90'> <img src='G_7.jpg' height='90'>","null","Animation0",""
"","","","","","html-keyboard-response","77","356156","0.0-17.0","13","1","2025-01-20 20:04:10","8e5ef0ea70509e21e61f535100ed03ac","206.251.200.220","Mozilla/5.0 (Windows NT 10.0; Win64; x64; rv:134.0) Gecko/20100101 Firefox/134.0","","Firefox","134.0","Windows","10.0","https://app.prolific.com/","en-US,en;q=0.5","677525639ae1d590af2ce48e","678b1bdf6d0aefd65c71dcd2","678eac126993576164e057a7","","null","<img  src='G_3.jpg' height='90'> <img   src='G_1.jpg' height='90'> <img id='selected'  src='G_9.jpg' height='90'> <img id='selected' src='G_5.jpg' height='90'> <img src='G_7.jpg' height='90'>","null","Animation0",""
"","","","","","html-keyboard-response","78","356659","0.0-18.0","13","1","2025-01-20 20:04:10","8e5ef0ea70509e21e61f535100ed03ac","206.251.200.220","Mozilla/5.0 (Windows NT 10.0; Win64; x64; rv:134.0) Gecko/20100101 Firefox/134.0","","Firefox","134.0","Windows","10.0","https://app.prolific.com/","en-US,en;q=0.5","677525639ae1d590af2ce48e","678b1bdf6d0aefd65c71dcd2","678eac126993576164e057a7","","null","<img  src='G_3.jpg' height='90'> <img   src='G_1.jpg' height='90'> <img id='selected'  src='G_9.jpg' height='90'> <img id='selected' src='G_5.jpg' height='90'> <img src='G_7.jpg' height='90'>","null","Animation0",""
"","","","","","html-keyboard-response","79","356973","0.0-19.0","13","1","2025-01-20 20:04:10","8e5ef0ea70509e21e61f535100ed03ac","206.251.200.220","Mozilla/5.0 (Windows NT 10.0; Win64; x64; rv:134.0) Gecko/20100101 Firefox/134.0","","Firefox","134.0","Windows","10.0","https://app.prolific.com/","en-US,en;q=0.5","677525639ae1d590af2ce48e","678b1bdf6d0aefd65c71dcd2","678eac126993576164e057a7","","null","<img  src='G_3.jpg' height='90'> <img   src='G_1.jpg' height='90'> <img   src='G_9.jpg' height='90'> <img  src='G_5.jpg' height='90'> <img src='G_7.jpg' height='90'>","null","Animation0",""
"","","","","","html-keyboard-response","80","357477","0.0-20.0","13","1","2025-01-20 20:04:10","8e5ef0ea70509e21e61f535100ed03ac","206.251.200.220","Mozilla/5.0 (Windows NT 10.0; Win64; x64; rv:134.0) Gecko/20100101 Firefox/134.0","","Firefox","134.0","Windows","10.0","https://app.prolific.com/","en-US,en;q=0.5","677525639ae1d590af2ce48e","678b1bdf6d0aefd65c71dcd2","678eac126993576164e057a7","","null","<img  src='G_3.jpg' height='90'> <img   src='G_1.jpg' height='90'> <img   src='G_9.jpg' height='90'> <img id='selected'  src='G_5.jpg' height='90'> <img src='G_7.jpg' height='90'>","null","Animation0",""
"","","","","","html-keyboard-response","81","357980","0.0-21.0","13","1","2025-01-20 20:04:10","8e5ef0ea70509e21e61f535100ed03ac","206.251.200.220","Mozilla/5.0 (Windows NT 10.0; Win64; x64; rv:134.0) Gecko/20100101 Firefox/134.0","","Firefox","134.0","Windows","10.0","https://app.prolific.com/","en-US,en;q=0.5","677525639ae1d590af2ce48e","678b1bdf6d0aefd65c71dcd2","678eac126993576164e057a7","","null","<img  src='G_3.jpg' height='90'> <img   src='G_1.jpg' height='90'> <img   src='G_9.jpg' height='90'> <img id='selected'  src='G_5.jpg' height='90'> <img id='selected' src='G_7.jpg' height='90'>","null","Animation0",""
"","","","","","html-keyboard-response","82","358484","0.0-22.0","13","1","2025-01-20 20:04:10","8e5ef0ea70509e21e61f535100ed03ac","206.251.200.220","Mozilla/5.0 (Windows NT 10.0; Win64; x64; rv:134.0) Gecko/20100101 Firefox/134.0","","Firefox","134.0","Windows","10.0","https://app.prolific.com/","en-US,en;q=0.5","677525639ae1d590af2ce48e","678b1bdf6d0aefd65c71dcd2","678eac126993576164e057a7","","null","<img  src='G_3.jpg' height='90'> <img   src='G_1.jpg' height='90'> <img   src='G_9.jpg' height='90'> <img id='selected'  src='G_5.jpg' height='90'> <img id='selected' src='G_7.jpg' height='90'>","null","Animation0",""
"","","","","","html-keyboard-response","83","358799","0.0-23.0","13","1","2025-01-20 20:04:10","8e5ef0ea70509e21e61f535100ed03ac","206.251.200.220","Mozilla/5.0 (Windows NT 10.0; Win64; x64; rv:134.0) Gecko/20100101 Firefox/134.0","","Firefox","134.0","Windows","10.0","https://app.prolific.com/","en-US,en;q=0.5","677525639ae1d590af2ce48e","678b1bdf6d0aefd65c71dcd2","678eac126993576164e057a7","","null","<img  src='G_3.jpg' height='90'> <img   src='G_1.jpg' height='90'> <img   src='G_9.jpg' height='90'> <img   src='G_5.jpg' height='90'> <img  src='G_7.jpg' height='90'>","null","Animation0",""
"","","","","","html-keyboard-response","84","363504","0.0-24.0","13","1","2025-01-20 20:04:10","8e5ef0ea70509e21e61f535100ed03ac","206.251.200.220","Mozilla/5.0 (Windows NT 10.0; Win64; x64; rv:134.0) Gecko/20100101 Firefox/134.0","","Firefox","134.0","Windows","10.0","https://app.prolific.com/","en-US,en;q=0.5","677525639ae1d590af2ce48e","678b1bdf6d0aefd65c71dcd2","678eac126993576164e057a7","","4704","[""Did you notice any patterns? <br><br>Press Enter to watch that example again and follow the steps of Omgne Sort.""]","enter","",""
"","","","","","html-button-response","85","363915","0.0-25.0","13","1","2025-01-20 20:04:10","8e5ef0ea70509e21e61f535100ed03ac","206.251.200.220","Mozilla/5.0 (Windows NT 10.0; Win64; x64; rv:134.0) Gecko/20100101 Firefox/134.0","","Firefox","134.0","Windows","10.0","https://app.prolific.com/","en-US,en;q=0.5","677525639ae1d590af2ce48e","678b1bdf6d0aefd65c71dcd2","678eac126993576164e057a7","","null","<img id='selected' src='G_1.jpg' height='90'> <img src='G_3.jpg' height='90'> <img src='G_9.jpg' height='90'> <img src='G_5.jpg' height='90'> <img src='G_7.jpg' height='90'>","null","Learning example 0",""
"","","","","","html-button-response","86","364228","0.0-26.0","13","1","2025-01-20 20:04:10","8e5ef0ea70509e21e61f535100ed03ac","206.251.200.220","Mozilla/5.0 (Windows NT 10.0; Win64; x64; rv:134.0) Gecko/20100101 Firefox/134.0","","Firefox","134.0","Windows","10.0","https://app.prolific.com/","en-US,en;q=0.5","677525639ae1d590af2ce48e","678b1bdf6d0aefd65c71dcd2","678eac126993576164e057a7","","null","<img id='selected' src='G_1.jpg' height='90'> <img id='selected' src='G_3.jpg' height='90'> <img src='G_9.jpg' height='90'> <img src='G_5.jpg' height='90'> <img src='G_7.jpg' height='90'>","null","Learning example 0",""
"","","","","","html-button-response","87","364543","0.0-27.0","13","1","2025-01-20 20:04:10","8e5ef0ea70509e21e61f535100ed03ac","206.251.200.220","Mozilla/5.0 (Windows NT 10.0; Win64; x64; rv:134.0) Gecko/20100101 Firefox/134.0","","Firefox","134.0","Windows","10.0","https://app.prolific.com/","en-US,en;q=0.5","677525639ae1d590af2ce48e","678b1bdf6d0aefd65c71dcd2","678eac126993576164e057a7","","null","<img id='swapped' src='G_3.jpg' height='90'> <img id='swapped' src='G_1.jpg' height='90'> <img src='G_9.jpg' height='90'> <img src='G_5.jpg' height='90'> <img src='G_7.jpg' height='90'>","null","Learning example 0",""
"","","","","","html-button-response","88","400141","0.0-28.0-0.0-0.0","13","1","2025-01-20 20:04:10","8e5ef0ea70509e21e61f535100ed03ac","206.251.200.220","Mozilla/5.0 (Windows NT 10.0; Win64; x64; rv:134.0) Gecko/20100101 Firefox/134.0","","Firefox","134.0","Windows","10.0","https://app.prolific.com/","en-US,en;q=0.5","677525639ae1d590af2ce48e","678b1bdf6d0aefd65c71dcd2","678eac126993576164e057a7","","35592","<img id='swapped' src='G_3.jpg' height='90'> <img id='swapped' src='G_1.jpg' height='90'> <img src='G_9.jpg' height='90'> <img src='G_5.jpg' height='90'> <img src='G_7.jpg' height='90'>","0","Learning example 0",""
"","","","","","html-button-response","89","400965","0.0-28.1-0.1-0.1","13","1","2025-01-20 20:04:10","8e5ef0ea70509e21e61f535100ed03ac","206.251.200.220","Mozilla/5.0 (Windows NT 10.0; Win64; x64; rv:134.0) Gecko/20100101 Firefox/134.0","","Firefox","134.0","Windows","10.0","https://app.prolific.com/","en-US,en;q=0.5","677525639ae1d590af2ce48e","678b1bdf6d0aefd65c71dcd2","678eac126993576164e057a7","","818","<img id='swapped' src='G_3.jpg' height='90'> <img id='swapped' src='G_1.jpg' height='90'> <img src='G_9.jpg' height='90'> <img src='G_5.jpg' height='90'> <img src='G_7.jpg' height='90'>","1","Learning example 0",""
"","","","","","html-button-response","90","401182","0.0-29.0","13","1","2025-01-20 20:04:10","8e5ef0ea70509e21e61f535100ed03ac","206.251.200.220","Mozilla/5.0 (Windows NT 10.0; Win64; x64; rv:134.0) Gecko/20100101 Firefox/134.0","","Firefox","134.0","Windows","10.0","https://app.prolific.com/","en-US,en;q=0.5","677525639ae1d590af2ce48e","678b1bdf6d0aefd65c71dcd2","678eac126993576164e057a7","","null","<img  src='G_3.jpg' height='90'> <img  src='G_1.jpg' height='90'> <img src='G_9.jpg' height='90'> <img src='G_5.jpg' height='90'> <img src='G_7.jpg' height='90'>","null","Learning example 0",""
"","","","","","html-button-response","91","401591","0.0-30.0","13","1","2025-01-20 20:04:10","8e5ef0ea70509e21e61f535100ed03ac","206.251.200.220","Mozilla/5.0 (Windows NT 10.0; Win64; x64; rv:134.0) Gecko/20100101 Firefox/134.0","","Firefox","134.0","Windows","10.0","https://app.prolific.com/","en-US,en;q=0.5","677525639ae1d590af2ce48e","678b1bdf6d0aefd65c71dcd2","678eac126993576164e057a7","","null","<img  src='G_3.jpg' height='90'> <img id='selected'  src='G_1.jpg' height='90'> <img src='G_9.jpg' height='90'> <img src='G_5.jpg' height='90'> <img src='G_7.jpg' height='90'>","null","Learning example 0",""
"","","","","","html-button-response","92","401905","0.0-31.0","13","1","2025-01-20 20:04:10","8e5ef0ea70509e21e61f535100ed03ac","206.251.200.220","Mozilla/5.0 (Windows NT 10.0; Win64; x64; rv:134.0) Gecko/20100101 Firefox/134.0","","Firefox","134.0","Windows","10.0","https://app.prolific.com/","en-US,en;q=0.5","677525639ae1d590af2ce48e","678b1bdf6d0aefd65c71dcd2","678eac126993576164e057a7","","null","<img  src='G_3.jpg' height='90'> <img id='selected'  src='G_1.jpg' height='90'> <img id='selected' src='G_9.jpg' height='90'> <img src='G_5.jpg' height='90'> <img src='G_7.jpg' height='90'>","null","Learning example 0",""
"","","","","","html-button-response","93","402219","0.0-32.0","13","1","2025-01-20 20:04:10","8e5ef0ea70509e21e61f535100ed03ac","206.251.200.220","Mozilla/5.0 (Windows NT 10.0; Win64; x64; rv:134.0) Gecko/20100101 Firefox/134.0","","Firefox","134.0","Windows","10.0","https://app.prolific.com/","en-US,en;q=0.5","677525639ae1d590af2ce48e","678b1bdf6d0aefd65c71dcd2","678eac126993576164e057a7","","null","<img  src='G_3.jpg' height='90'> <img id='selected'  src='G_1.jpg' height='90'> <img id='selected' src='G_9.jpg' height='90'> <img src='G_5.jpg' height='90'> <img src='G_7.jpg' height='90'>","null","Learning example 0",""
"","","","","","html-button-response","94","407876","0.0-33.0-0.0-0.0","13","1","2025-01-20 20:04:10","8e5ef0ea70509e21e61f535100ed03ac","206.251.200.220","Mozilla/5.0 (Windows NT 10.0; Win64; x64; rv:134.0) Gecko/20100101 Firefox/134.0","","Firefox","134.0","Windows","10.0","https://app.prolific.com/","en-US,en;q=0.5","677525639ae1d590af2ce48e","678b1bdf6d0aefd65c71dcd2","678eac126993576164e057a7","","5653","<img  src='G_3.jpg' height='90'> <img id='selected'  src='G_1.jpg' height='90'> <img id='selected' src='G_9.jpg' height='90'> <img src='G_5.jpg' height='90'> <img src='G_7.jpg' height='90'>","2","Learning example 0",""
"","","","","","html-button-response","95","409022","0.0-33.1-0.1-0.1","13","1","2025-01-20 20:04:10","8e5ef0ea70509e21e61f535100ed03ac","206.251.200.220","Mozilla/5.0 (Windows NT 10.0; Win64; x64; rv:134.0) Gecko/20100101 Firefox/134.0","","Firefox","134.0","Windows","10.0","https://app.prolific.com/","en-US,en;q=0.5","677525639ae1d590af2ce48e","678b1bdf6d0aefd65c71dcd2","678eac126993576164e057a7","","1141","<img  src='G_3.jpg' height='90'> <img id='selected'  src='G_1.jpg' height='90'> <img id='selected' src='G_9.jpg' height='90'> <img src='G_5.jpg' height='90'> <img src='G_7.jpg' height='90'>","1","Learning example 0",""
"","","","","","html-button-response","96","409240","0.0-34.0","13","1","2025-01-20 20:04:10","8e5ef0ea70509e21e61f535100ed03ac","206.251.200.220","Mozilla/5.0 (Windows NT 10.0; Win64; x64; rv:134.0) Gecko/20100101 Firefox/134.0","","Firefox","134.0","Windows","10.0","https://app.prolific.com/","en-US,en;q=0.5","677525639ae1d590af2ce48e","678b1bdf6d0aefd65c71dcd2","678eac126993576164e057a7","","null","<img  src='G_3.jpg' height='90'> <img   src='G_1.jpg' height='90'> <img  src='G_9.jpg' height='90'> <img src='G_5.jpg' height='90'> <img src='G_7.jpg' height='90'>","null","Learning example 0",""
"","","","","","html-button-response","97","409648","0.0-35.0","13","1","2025-01-20 20:04:10","8e5ef0ea70509e21e61f535100ed03ac","206.251.200.220","Mozilla/5.0 (Windows NT 10.0; Win64; x64; rv:134.0) Gecko/20100101 Firefox/134.0","","Firefox","134.0","Windows","10.0","https://app.prolific.com/","en-US,en;q=0.5","677525639ae1d590af2ce48e","678b1bdf6d0aefd65c71dcd2","678eac126993576164e057a7","","null","<img  src='G_3.jpg' height='90'> <img   src='G_1.jpg' height='90'> <img id='selected'  src='G_9.jpg' height='90'> <img src='G_5.jpg' height='90'> <img src='G_7.jpg' height='90'>","null","Learning example 0",""
"","","","","","html-button-response","98","409962","0.0-36.0","13","1","2025-01-20 20:04:10","8e5ef0ea70509e21e61f535100ed03ac","206.251.200.220","Mozilla/5.0 (Windows NT 10.0; Win64; x64; rv:134.0) Gecko/20100101 Firefox/134.0","","Firefox","134.0","Windows","10.0","https://app.prolific.com/","en-US,en;q=0.5","677525639ae1d590af2ce48e","678b1bdf6d0aefd65c71dcd2","678eac126993576164e057a7","","null","<img  src='G_3.jpg' height='90'> <img   src='G_1.jpg' height='90'> <img id='selected'  src='G_9.jpg' height='90'> <img id='selected' src='G_5.jpg' height='90'> <img src='G_7.jpg' height='90'>","null","Learning example 0",""
"","","","","","html-button-response","99","410277","0.0-37.0","13","1","2025-01-20 20:04:10","8e5ef0ea70509e21e61f535100ed03ac","206.251.200.220","Mozilla/5.0 (Windows NT 10.0; Win64; x64; rv:134.0) Gecko/20100101 Firefox/134.0","","Firefox","134.0","Windows","10.0","https://app.prolific.com/","en-US,en;q=0.5","677525639ae1d590af2ce48e","678b1bdf6d0aefd65c71dcd2","678eac126993576164e057a7","","null","<img  src='G_3.jpg' height='90'> <img   src='G_1.jpg' height='90'> <img id='selected'  src='G_9.jpg' height='90'> <img id='selected' src='G_5.jpg' height='90'> <img src='G_7.jpg' height='90'>","null","Learning example 0",""
"","","","","","html-button-response","100","415101","0.0-38.0-0.0-0.0","13","1","2025-01-20 20:04:10","8e5ef0ea70509e21e61f535100ed03ac","206.251.200.220","Mozilla/5.0 (Windows NT 10.0; Win64; x64; rv:134.0) Gecko/20100101 Firefox/134.0","","Firefox","134.0","Windows","10.0","https://app.prolific.com/","en-US,en;q=0.5","677525639ae1d590af2ce48e","678b1bdf6d0aefd65c71dcd2","678eac126993576164e057a7","","4820","<img  src='G_3.jpg' height='90'> <img   src='G_1.jpg' height='90'> <img id='selected'  src='G_9.jpg' height='90'> <img id='selected' src='G_5.jpg' height='90'> <img src='G_7.jpg' height='90'>","2","Learning example 0",""
"","","","","","html-button-response","101","415907","0.0-38.1-0.1-0.1","13","1","2025-01-20 20:04:10","8e5ef0ea70509e21e61f535100ed03ac","206.251.200.220","Mozilla/5.0 (Windows NT 10.0; Win64; x64; rv:134.0) Gecko/20100101 Firefox/134.0","","Firefox","134.0","Windows","10.0","https://app.prolific.com/","en-US,en;q=0.5","677525639ae1d590af2ce48e","678b1bdf6d0aefd65c71dcd2","678eac126993576164e057a7","","801","<img  src='G_3.jpg' height='90'> <img   src='G_1.jpg' height='90'> <img id='selected'  src='G_9.jpg' height='90'> <img id='selected' src='G_5.jpg' height='90'> <img src='G_7.jpg' height='90'>","3","Learning example 0",""
"","","","","","html-button-response","102","416124","0.0-39.0","13","1","2025-01-20 20:04:10","8e5ef0ea70509e21e61f535100ed03ac","206.251.200.220","Mozilla/5.0 (Windows NT 10.0; Win64; x64; rv:134.0) Gecko/20100101 Firefox/134.0","","Firefox","134.0","Windows","10.0","https://app.prolific.com/","en-US,en;q=0.5","677525639ae1d590af2ce48e","678b1bdf6d0aefd65c71dcd2","678eac126993576164e057a7","","null","<img  src='G_3.jpg' height='90'> <img   src='G_1.jpg' height='90'> <img   src='G_9.jpg' height='90'> <img  src='G_5.jpg' height='90'> <img src='G_7.jpg' height='90'>","null","Learning example 0",""
"","","","","","html-button-response","103","416533","0.0-40.0","13","1","2025-01-20 20:04:10","8e5ef0ea70509e21e61f535100ed03ac","206.251.200.220","Mozilla/5.0 (Windows NT 10.0; Win64; x64; rv:134.0) Gecko/20100101 Firefox/134.0","","Firefox","134.0","Windows","10.0","https://app.prolific.com/","en-US,en;q=0.5","677525639ae1d590af2ce48e","678b1bdf6d0aefd65c71dcd2","678eac126993576164e057a7","","null","<img  src='G_3.jpg' height='90'> <img   src='G_1.jpg' height='90'> <img   src='G_9.jpg' height='90'> <img id='selected'  src='G_5.jpg' height='90'> <img src='G_7.jpg' height='90'>","null","Learning example 0",""
"","","","","","html-button-response","104","416848","0.0-41.0","13","1","2025-01-20 20:04:10","8e5ef0ea70509e21e61f535100ed03ac","206.251.200.220","Mozilla/5.0 (Windows NT 10.0; Win64; x64; rv:134.0) Gecko/20100101 Firefox/134.0","","Firefox","134.0","Windows","10.0","https://app.prolific.com/","en-US,en;q=0.5","677525639ae1d590af2ce48e","678b1bdf6d0aefd65c71dcd2","678eac126993576164e057a7","","null","<img  src='G_3.jpg' height='90'> <img   src='G_1.jpg' height='90'> <img   src='G_9.jpg' height='90'> <img id='selected'  src='G_5.jpg' height='90'> <img id='selected' src='G_7.jpg' height='90'>","null","Learning example 0",""
"","","","","","html-button-response","105","417161","0.0-42.0","13","1","2025-01-20 20:04:10","8e5ef0ea70509e21e61f535100ed03ac","206.251.200.220","Mozilla/5.0 (Windows NT 10.0; Win64; x64; rv:134.0) Gecko/20100101 Firefox/134.0","","Firefox","134.0","Windows","10.0","https://app.prolific.com/","en-US,en;q=0.5","677525639ae1d590af2ce48e","678b1bdf6d0aefd65c71dcd2","678eac126993576164e057a7","","null","<img  src='G_3.jpg' height='90'> <img   src='G_1.jpg' height='90'> <img   src='G_9.jpg' height='90'> <img id='selected'  src='G_5.jpg' height='90'> <img id='selected' src='G_7.jpg' height='90'>","null","Learning example 0",""
"","","","","","html-button-response","106","418573","0.0-43.0-0.0-0.0","13","1","2025-01-20 20:04:10","8e5ef0ea70509e21e61f535100ed03ac","206.251.200.220","Mozilla/5.0 (Windows NT 10.0; Win64; x64; rv:134.0) Gecko/20100101 Firefox/134.0","","Firefox","134.0","Windows","10.0","https://app.prolific.com/","en-US,en;q=0.5","677525639ae1d590af2ce48e","678b1bdf6d0aefd65c71dcd2","678eac126993576164e057a7","","1406","<img  src='G_3.jpg' height='90'> <img   src='G_1.jpg' height='90'> <img   src='G_9.jpg' height='90'> <img id='selected'  src='G_5.jpg' height='90'> <img id='selected' src='G_7.jpg' height='90'>","3","Learning example 0",""
"","","","","","html-button-response","107","419477","0.0-43.1-0.1-0.1","13","1","2025-01-20 20:04:10","8e5ef0ea70509e21e61f535100ed03ac","206.251.200.220","Mozilla/5.0 (Windows NT 10.0; Win64; x64; rv:134.0) Gecko/20100101 Firefox/134.0","","Firefox","134.0","Windows","10.0","https://app.prolific.com/","en-US,en;q=0.5","677525639ae1d590af2ce48e","678b1bdf6d0aefd65c71dcd2","678eac126993576164e057a7","","899","<img  src='G_3.jpg' height='90'> <img   src='G_1.jpg' height='90'> <img   src='G_9.jpg' height='90'> <img id='selected'  src='G_5.jpg' height='90'> <img id='selected' src='G_7.jpg' height='90'>","4","Learning example 0",""
"","","","","","html-button-response","108","419695","0.0-44.0","13","1","2025-01-20 20:04:10","8e5ef0ea70509e21e61f535100ed03ac","206.251.200.220","Mozilla/5.0 (Windows NT 10.0; Win64; x64; rv:134.0) Gecko/20100101 Firefox/134.0","","Firefox","134.0","Windows","10.0","https://app.prolific.com/","en-US,en;q=0.5","677525639ae1d590af2ce48e","678b1bdf6d0aefd65c71dcd2","678eac126993576164e057a7","","null","<img  src='G_3.jpg' height='90'> <img   src='G_1.jpg' height='90'> <img   src='G_9.jpg' height='90'> <img   src='G_5.jpg' height='90'> <img  src='G_7.jpg' height='90'>","null","Learning example 0",""
"","","","","","html-keyboard-response","109","428688","0.0-45.0","13","1","2025-01-20 20:04:10","8e5ef0ea70509e21e61f535100ed03ac","206.251.200.220","Mozilla/5.0 (Windows NT 10.0; Win64; x64; rv:134.0) Gecko/20100101 Firefox/134.0","","Firefox","134.0","Windows","10.0","https://app.prolific.com/","en-US,en;q=0.5","677525639ae1d590af2ce48e","678b1bdf6d0aefd65c71dcd2","678eac126993576164e057a7","","8990","[""Final order was 1,2,3,4,5. The initial order was 2,1,3,4,5.<br>It took 1 swaps to sort it correctly with Omgne Sort. <br><br>Press Enter to continue.""]","enter","",""
"","","","","","html-keyboard-response","110","435538","0.0-46.0","13","1","2025-01-20 20:04:10","8e5ef0ea70509e21e61f535100ed03ac","206.251.200.220","Mozilla/5.0 (Windows NT 10.0; Win64; x64; rv:134.0) Gecko/20100101 Firefox/134.0","","Firefox","134.0","Windows","10.0","https://app.prolific.com/","en-US,en;q=0.5","677525639ae1d590af2ce48e","678b1bdf6d0aefd65c71dcd2","678eac126993576164e057a7","","6846","[""Example 2<br><br>You will watch Omnge Sort in action. Try to identify any patterns in the comparisons made by this method. <br><br>Press Enter to continue.""]","enter","",""
"","","","","","html-keyboard-response","111","436052","0.0-47.0","13","1","2025-01-20 20:04:10","8e5ef0ea70509e21e61f535100ed03ac","206.251.200.220","Mozilla/5.0 (Windows NT 10.0; Win64; x64; rv:134.0) Gecko/20100101 Firefox/134.0","","Firefox","134.0","Windows","10.0","https://app.prolific.com/","en-US,en;q=0.5","677525639ae1d590af2ce48e","678b1bdf6d0aefd65c71dcd2","678eac126993576164e057a7","","null","<img id='selected' src='G_1.jpg' height='90'> <img src='G_7.jpg' height='90'> <img src='G_4.jpg' height='90'> <img src='G_2.jpg' height='90'> <img src='G_8.jpg' height='90'> <img src='G_3.jpg' height='90'> <img src='G_5.jpg' height='90'> <img src='G_6.jpg' height='90'>","null","Animation1",""
"","","","","","html-keyboard-response","112","436570","0.0-48.0","13","1","2025-01-20 20:04:10","8e5ef0ea70509e21e61f535100ed03ac","206.251.200.220","Mozilla/5.0 (Windows NT 10.0; Win64; x64; rv:134.0) Gecko/20100101 Firefox/134.0","","Firefox","134.0","Windows","10.0","https://app.prolific.com/","en-US,en;q=0.5","677525639ae1d590af2ce48e","678b1bdf6d0aefd65c71dcd2","678eac126993576164e057a7","","null","<img id='selected' src='G_1.jpg' height='90'> <img id='selected' src='G_7.jpg' height='90'> <img src='G_4.jpg' height='90'> <img src='G_2.jpg' height='90'> <img src='G_8.jpg' height='90'> <img src='G_3.jpg' height='90'> <img src='G_5.jpg' height='90'> <img src='G_6.jpg' height='90'>","null","Animation1",""
"","","","","","html-keyboard-response","113","437089","0.0-49.0","13","1","2025-01-20 20:04:10","8e5ef0ea70509e21e61f535100ed03ac","206.251.200.220","Mozilla/5.0 (Windows NT 10.0; Win64; x64; rv:134.0) Gecko/20100101 Firefox/134.0","","Firefox","134.0","Windows","10.0","https://app.prolific.com/","en-US,en;q=0.5","677525639ae1d590af2ce48e","678b1bdf6d0aefd65c71dcd2","678eac126993576164e057a7","","null","<img id='selected' src='G_1.jpg' height='90'> <img id='selected' src='G_7.jpg' height='90'> <img src='G_4.jpg' height='90'> <img src='G_2.jpg' height='90'> <img src='G_8.jpg' height='90'> <img src='G_3.jpg' height='90'> <img src='G_5.jpg' height='90'> <img src='G_6.jpg' height='90'>","null","Animation1",""
"","","","","","html-keyboard-response","114","437403","0.0-50.0","13","1","2025-01-20 20:04:10","8e5ef0ea70509e21e61f535100ed03ac","206.251.200.220","Mozilla/5.0 (Windows NT 10.0; Win64; x64; rv:134.0) Gecko/20100101 Firefox/134.0","","Firefox","134.0","Windows","10.0","https://app.prolific.com/","en-US,en;q=0.5","677525639ae1d590af2ce48e","678b1bdf6d0aefd65c71dcd2","678eac126993576164e057a7","","null","<img  src='G_1.jpg' height='90'> <img  src='G_7.jpg' height='90'> <img src='G_4.jpg' height='90'> <img src='G_2.jpg' height='90'> <img src='G_8.jpg' height='90'> <img src='G_3.jpg' height='90'> <img src='G_5.jpg' height='90'> <img src='G_6.jpg' height='90'>","null","Animation1",""
"","","","","","html-keyboard-response","115","437922","0.0-51.0","13","1","2025-01-20 20:04:10","8e5ef0ea70509e21e61f535100ed03ac","206.251.200.220","Mozilla/5.0 (Windows NT 10.0; Win64; x64; rv:134.0) Gecko/20100101 Firefox/134.0","","Firefox","134.0","Windows","10.0","https://app.prolific.com/","en-US,en;q=0.5","677525639ae1d590af2ce48e","678b1bdf6d0aefd65c71dcd2","678eac126993576164e057a7","","null","<img  src='G_1.jpg' height='90'> <img id='selected'  src='G_7.jpg' height='90'> <img src='G_4.jpg' height='90'> <img src='G_2.jpg' height='90'> <img src='G_8.jpg' height='90'> <img src='G_3.jpg' height='90'> <img src='G_5.jpg' height='90'> <img src='G_6.jpg' height='90'>","null","Animation1",""
"","","","","","html-keyboard-response","116","438440","0.0-52.0","13","1","2025-01-20 20:04:10","8e5ef0ea70509e21e61f535100ed03ac","206.251.200.220","Mozilla/5.0 (Windows NT 10.0; Win64; x64; rv:134.0) Gecko/20100101 Firefox/134.0","","Firefox","134.0","Windows","10.0","https://app.prolific.com/","en-US,en;q=0.5","677525639ae1d590af2ce48e","678b1bdf6d0aefd65c71dcd2","678eac126993576164e057a7","","null","<img  src='G_1.jpg' height='90'> <img id='selected'  src='G_7.jpg' height='90'> <img id='selected' src='G_4.jpg' height='90'> <img src='G_2.jpg' height='90'> <img src='G_8.jpg' height='90'> <img src='G_3.jpg' height='90'> <img src='G_5.jpg' height='90'> <img src='G_6.jpg' height='90'>","null","Animation1",""
"","","","","","html-keyboard-response","117","438958","0.0-53.0","13","1","2025-01-20 20:04:10","8e5ef0ea70509e21e61f535100ed03ac","206.251.200.220","Mozilla/5.0 (Windows NT 10.0; Win64; x64; rv:134.0) Gecko/20100101 Firefox/134.0","","Firefox","134.0","Windows","10.0","https://app.prolific.com/","en-US,en;q=0.5","677525639ae1d590af2ce48e","678b1bdf6d0aefd65c71dcd2","678eac126993576164e057a7","","null","<img  src='G_1.jpg' height='90'> <img id='swapped' src='G_4.jpg' height='90'> <img id='swapped'  src='G_7.jpg' height='90'> <img src='G_2.jpg' height='90'> <img src='G_8.jpg' height='90'> <img src='G_3.jpg' height='90'> <img src='G_5.jpg' height='90'> <img src='G_6.jpg' height='90'>","null","Animation1",""
"","","","","","html-keyboard-response","118","439273","0.0-54.0","13","1","2025-01-20 20:04:10","8e5ef0ea70509e21e61f535100ed03ac","206.251.200.220","Mozilla/5.0 (Windows NT 10.0; Win64; x64; rv:134.0) Gecko/20100101 Firefox/134.0","","Firefox","134.0","Windows","10.0","https://app.prolific.com/","en-US,en;q=0.5","677525639ae1d590af2ce48e","678b1bdf6d0aefd65c71dcd2","678eac126993576164e057a7","","null","<img  src='G_1.jpg' height='90'> <img  src='G_4.jpg' height='90'> <img   src='G_7.jpg' height='90'> <img src='G_2.jpg' height='90'> <img src='G_8.jpg' height='90'> <img src='G_3.jpg' height='90'> <img src='G_5.jpg' height='90'> <img src='G_6.jpg' height='90'>","null","Animation1",""
"","","","","","html-keyboard-response","119","439792","0.0-55.0","13","1","2025-01-20 20:04:10","8e5ef0ea70509e21e61f535100ed03ac","206.251.200.220","Mozilla/5.0 (Windows NT 10.0; Win64; x64; rv:134.0) Gecko/20100101 Firefox/134.0","","Firefox","134.0","Windows","10.0","https://app.prolific.com/","en-US,en;q=0.5","677525639ae1d590af2ce48e","678b1bdf6d0aefd65c71dcd2","678eac126993576164e057a7","","null","<img id='selected'  src='G_1.jpg' height='90'> <img  src='G_4.jpg' height='90'> <img   src='G_7.jpg' height='90'> <img src='G_2.jpg' height='90'> <img src='G_8.jpg' height='90'> <img src='G_3.jpg' height='90'> <img src='G_5.jpg' height='90'> <img src='G_6.jpg' height='90'>","null","Animation1",""
"","","","","","html-keyboard-response","120","440310","0.0-56.0","13","1","2025-01-20 20:04:10","8e5ef0ea70509e21e61f535100ed03ac","206.251.200.220","Mozilla/5.0 (Windows NT 10.0; Win64; x64; rv:134.0) Gecko/20100101 Firefox/134.0","","Firefox","134.0","Windows","10.0","https://app.prolific.com/","en-US,en;q=0.5","677525639ae1d590af2ce48e","678b1bdf6d0aefd65c71dcd2","678eac126993576164e057a7","","null","<img id='selected'  src='G_1.jpg' height='90'> <img id='selected'  src='G_4.jpg' height='90'> <img   src='G_7.jpg' height='90'> <img src='G_2.jpg' height='90'> <img src='G_8.jpg' height='90'> <img src='G_3.jpg' height='90'> <img src='G_5.jpg' height='90'> <img src='G_6.jpg' height='90'>","null","Animation1",""
"","","","","","html-keyboard-response","121","440829","0.0-57.0","13","1","2025-01-20 20:04:10","8e5ef0ea70509e21e61f535100ed03ac","206.251.200.220","Mozilla/5.0 (Windows NT 10.0; Win64; x64; rv:134.0) Gecko/20100101 Firefox/134.0","","Firefox","134.0","Windows","10.0","https://app.prolific.com/","en-US,en;q=0.5","677525639ae1d590af2ce48e","678b1bdf6d0aefd65c71dcd2","678eac126993576164e057a7","","null","<img id='swapped'  src='G_4.jpg' height='90'> <img id='swapped'  src='G_1.jpg' height='90'> <img   src='G_7.jpg' height='90'> <img src='G_2.jpg' height='90'> <img src='G_8.jpg' height='90'> <img src='G_3.jpg' height='90'> <img src='G_5.jpg' height='90'> <img src='G_6.jpg' height='90'>","null","Animation1",""
"","","","","","html-keyboard-response","122","441143","0.0-58.0","13","1","2025-01-20 20:04:10","8e5ef0ea70509e21e61f535100ed03ac","206.251.200.220","Mozilla/5.0 (Windows NT 10.0; Win64; x64; rv:134.0) Gecko/20100101 Firefox/134.0","","Firefox","134.0","Windows","10.0","https://app.prolific.com/","en-US,en;q=0.5","677525639ae1d590af2ce48e","678b1bdf6d0aefd65c71dcd2","678eac126993576164e057a7","","null","<img   src='G_4.jpg' height='90'> <img   src='G_1.jpg' height='90'> <img   src='G_7.jpg' height='90'> <img src='G_2.jpg' height='90'> <img src='G_8.jpg' height='90'> <img src='G_3.jpg' height='90'> <img src='G_5.jpg' height='90'> <img src='G_6.jpg' height='90'>","null","Animation1",""
"","","","","","html-keyboard-response","123","441662","0.0-59.0","13","1","2025-01-20 20:04:10","8e5ef0ea70509e21e61f535100ed03ac","206.251.200.220","Mozilla/5.0 (Windows NT 10.0; Win64; x64; rv:134.0) Gecko/20100101 Firefox/134.0","","Firefox","134.0","Windows","10.0","https://app.prolific.com/","en-US,en;q=0.5","677525639ae1d590af2ce48e","678b1bdf6d0aefd65c71dcd2","678eac126993576164e057a7","","null","<img   src='G_4.jpg' height='90'> <img   src='G_1.jpg' height='90'> <img id='selected'   src='G_7.jpg' height='90'> <img src='G_2.jpg' height='90'> <img src='G_8.jpg' height='90'> <img src='G_3.jpg' height='90'> <img src='G_5.jpg' height='90'> <img src='G_6.jpg' height='90'>","null","Animation1",""
"","","","","","html-keyboard-response","124","442181","0.0-60.0","13","1","2025-01-20 20:04:10","8e5ef0ea70509e21e61f535100ed03ac","206.251.200.220","Mozilla/5.0 (Windows NT 10.0; Win64; x64; rv:134.0) Gecko/20100101 Firefox/134.0","","Firefox","134.0","Windows","10.0","https://app.prolific.com/","en-US,en;q=0.5","677525639ae1d590af2ce48e","678b1bdf6d0aefd65c71dcd2","678eac126993576164e057a7","","null","<img   src='G_4.jpg' height='90'> <img   src='G_1.jpg' height='90'> <img id='selected'   src='G_7.jpg' height='90'> <img id='selected' src='G_2.jpg' height='90'> <img src='G_8.jpg' height='90'> <img src='G_3.jpg' height='90'> <img src='G_5.jpg' height='90'> <img src='G_6.jpg' height='90'>","null","Animation1",""
"","","","","","html-keyboard-response","125","442700","0.0-61.0","13","1","2025-01-20 20:04:10","8e5ef0ea70509e21e61f535100ed03ac","206.251.200.220","Mozilla/5.0 (Windows NT 10.0; Win64; x64; rv:134.0) Gecko/20100101 Firefox/134.0","","Firefox","134.0","Windows","10.0","https://app.prolific.com/","en-US,en;q=0.5","677525639ae1d590af2ce48e","678b1bdf6d0aefd65c71dcd2","678eac126993576164e057a7","","null","<img   src='G_4.jpg' height='90'> <img   src='G_1.jpg' height='90'> <img id='swapped' src='G_2.jpg' height='90'> <img id='swapped'   src='G_7.jpg' height='90'> <img src='G_8.jpg' height='90'> <img src='G_3.jpg' height='90'> <img src='G_5.jpg' height='90'> <img src='G_6.jpg' height='90'>","null","Animation1",""
"","","","","","html-keyboard-response","126","443015","0.0-62.0","13","1","2025-01-20 20:04:10","8e5ef0ea70509e21e61f535100ed03ac","206.251.200.220","Mozilla/5.0 (Windows NT 10.0; Win64; x64; rv:134.0) Gecko/20100101 Firefox/134.0","","Firefox","134.0","Windows","10.0","https://app.prolific.com/","en-US,en;q=0.5","677525639ae1d590af2ce48e","678b1bdf6d0aefd65c71dcd2","678eac126993576164e057a7","","null","<img   src='G_4.jpg' height='90'> <img   src='G_1.jpg' height='90'> <img  src='G_2.jpg' height='90'> <img    src='G_7.jpg' height='90'> <img src='G_8.jpg' height='90'> <img src='G_3.jpg' height='90'> <img src='G_5.jpg' height='90'> <img src='G_6.jpg' height='90'>","null","Animation1",""
"","","","","","html-keyboard-response","127","443534","0.0-63.0","13","1","2025-01-20 20:04:10","8e5ef0ea70509e21e61f535100ed03ac","206.251.200.220","Mozilla/5.0 (Windows NT 10.0; Win64; x64; rv:134.0) Gecko/20100101 Firefox/134.0","","Firefox","134.0","Windows","10.0","https://app.prolific.com/","en-US,en;q=0.5","677525639ae1d590af2ce48e","678b1bdf6d0aefd65c71dcd2","678eac126993576164e057a7","","null","<img   src='G_4.jpg' height='90'> <img id='selected'   src='G_1.jpg' height='90'> <img  src='G_2.jpg' height='90'> <img    src='G_7.jpg' height='90'> <img src='G_8.jpg' height='90'> <img src='G_3.jpg' height='90'> <img src='G_5.jpg' height='90'> <img src='G_6.jpg' height='90'>","null","Animation1",""
"","","","","","html-keyboard-response","128","444052","0.0-64.0","13","1","2025-01-20 20:04:10","8e5ef0ea70509e21e61f535100ed03ac","206.251.200.220","Mozilla/5.0 (Windows NT 10.0; Win64; x64; rv:134.0) Gecko/20100101 Firefox/134.0","","Firefox","134.0","Windows","10.0","https://app.prolific.com/","en-US,en;q=0.5","677525639ae1d590af2ce48e","678b1bdf6d0aefd65c71dcd2","678eac126993576164e057a7","","null","<img   src='G_4.jpg' height='90'> <img id='selected'   src='G_1.jpg' height='90'> <img id='selected'  src='G_2.jpg' height='90'> <img    src='G_7.jpg' height='90'> <img src='G_8.jpg' height='90'> <img src='G_3.jpg' height='90'> <img src='G_5.jpg' height='90'> <img src='G_6.jpg' height='90'>","null","Animation1",""
"","","","","","html-keyboard-response","129","444569","0.0-65.0","13","1","2025-01-20 20:04:10","8e5ef0ea70509e21e61f535100ed03ac","206.251.200.220","Mozilla/5.0 (Windows NT 10.0; Win64; x64; rv:134.0) Gecko/20100101 Firefox/134.0","","Firefox","134.0","Windows","10.0","https://app.prolific.com/","en-US,en;q=0.5","677525639ae1d590af2ce48e","678b1bdf6d0aefd65c71dcd2","678eac126993576164e057a7","","null","<img   src='G_4.jpg' height='90'> <img id='swapped'  src='G_2.jpg' height='90'> <img id='swapped'   src='G_1.jpg' height='90'> <img    src='G_7.jpg' height='90'> <img src='G_8.jpg' height='90'> <img src='G_3.jpg' height='90'> <img src='G_5.jpg' height='90'> <img src='G_6.jpg' height='90'>","null","Animation1",""
"","","","","","html-keyboard-response","130","444884","0.0-66.0","13","1","2025-01-20 20:04:10","8e5ef0ea70509e21e61f535100ed03ac","206.251.200.220","Mozilla/5.0 (Windows NT 10.0; Win64; x64; rv:134.0) Gecko/20100101 Firefox/134.0","","Firefox","134.0","Windows","10.0","https://app.prolific.com/","en-US,en;q=0.5","677525639ae1d590af2ce48e","678b1bdf6d0aefd65c71dcd2","678eac126993576164e057a7","","null","<img   src='G_4.jpg' height='90'> <img   src='G_2.jpg' height='90'> <img    src='G_1.jpg' height='90'> <img    src='G_7.jpg' height='90'> <img src='G_8.jpg' height='90'> <img src='G_3.jpg' height='90'> <img src='G_5.jpg' height='90'> <img src='G_6.jpg' height='90'>","null","Animation1",""
"","","","","","html-keyboard-response","131","445402","0.0-67.0","13","1","2025-01-20 20:04:10","8e5ef0ea70509e21e61f535100ed03ac","206.251.200.220","Mozilla/5.0 (Windows NT 10.0; Win64; x64; rv:134.0) Gecko/20100101 Firefox/134.0","","Firefox","134.0","Windows","10.0","https://app.prolific.com/","en-US,en;q=0.5","677525639ae1d590af2ce48e","678b1bdf6d0aefd65c71dcd2","678eac126993576164e057a7","","null","<img id='selected'   src='G_4.jpg' height='90'> <img   src='G_2.jpg' height='90'> <img    src='G_1.jpg' height='90'> <img    src='G_7.jpg' height='90'> <img src='G_8.jpg' height='90'> <img src='G_3.jpg' height='90'> <img src='G_5.jpg' height='90'> <img src='G_6.jpg' height='90'>","null","Animation1",""
"","","","","","html-keyboard-response","132","445920","0.0-68.0","13","1","2025-01-20 20:04:10","8e5ef0ea70509e21e61f535100ed03ac","206.251.200.220","Mozilla/5.0 (Windows NT 10.0; Win64; x64; rv:134.0) Gecko/20100101 Firefox/134.0","","Firefox","134.0","Windows","10.0","https://app.prolific.com/","en-US,en;q=0.5","677525639ae1d590af2ce48e","678b1bdf6d0aefd65c71dcd2","678eac126993576164e057a7","","null","<img id='selected'   src='G_4.jpg' height='90'> <img id='selected'   src='G_2.jpg' height='90'> <img    src='G_1.jpg' height='90'> <img    src='G_7.jpg' height='90'> <img src='G_8.jpg' height='90'> <img src='G_3.jpg' height='90'> <img src='G_5.jpg' height='90'> <img src='G_6.jpg' height='90'>","null","Animation1",""
"","","","","","html-keyboard-response","133","446438","0.0-69.0","13","1","2025-01-20 20:04:10","8e5ef0ea70509e21e61f535100ed03ac","206.251.200.220","Mozilla/5.0 (Windows NT 10.0; Win64; x64; rv:134.0) Gecko/20100101 Firefox/134.0","","Firefox","134.0","Windows","10.0","https://app.prolific.com/","en-US,en;q=0.5","677525639ae1d590af2ce48e","678b1bdf6d0aefd65c71dcd2","678eac126993576164e057a7","","null","<img id='swapped'   src='G_2.jpg' height='90'> <img id='swapped'   src='G_4.jpg' height='90'> <img    src='G_1.jpg' height='90'> <img    src='G_7.jpg' height='90'> <img src='G_8.jpg' height='90'> <img src='G_3.jpg' height='90'> <img src='G_5.jpg' height='90'> <img src='G_6.jpg' height='90'>","null","Animation1",""
"","","","","","html-keyboard-response","134","446752","0.0-70.0","13","1","2025-01-20 20:04:10","8e5ef0ea70509e21e61f535100ed03ac","206.251.200.220","Mozilla/5.0 (Windows NT 10.0; Win64; x64; rv:134.0) Gecko/20100101 Firefox/134.0","","Firefox","134.0","Windows","10.0","https://app.prolific.com/","en-US,en;q=0.5","677525639ae1d590af2ce48e","678b1bdf6d0aefd65c71dcd2","678eac126993576164e057a7","","null","<img    src='G_2.jpg' height='90'> <img    src='G_4.jpg' height='90'> <img    src='G_1.jpg' height='90'> <img    src='G_7.jpg' height='90'> <img src='G_8.jpg' height='90'> <img src='G_3.jpg' height='90'> <img src='G_5.jpg' height='90'> <img src='G_6.jpg' height='90'>","null","Animation1",""
"","","","","","html-keyboard-response","135","447270","0.0-71.0","13","1","2025-01-20 20:04:10","8e5ef0ea70509e21e61f535100ed03ac","206.251.200.220","Mozilla/5.0 (Windows NT 10.0; Win64; x64; rv:134.0) Gecko/20100101 Firefox/134.0","","Firefox","134.0","Windows","10.0","https://app.prolific.com/","en-US,en;q=0.5","677525639ae1d590af2ce48e","678b1bdf6d0aefd65c71dcd2","678eac126993576164e057a7","","null","<img    src='G_2.jpg' height='90'> <img    src='G_4.jpg' height='90'> <img    src='G_1.jpg' height='90'> <img id='selected'    src='G_7.jpg' height='90'> <img src='G_8.jpg' height='90'> <img src='G_3.jpg' height='90'> <img src='G_5.jpg' height='90'> <img src='G_6.jpg' height='90'>","null","Animation1",""
"","","","","","html-keyboard-response","136","447790","0.0-72.0","13","1","2025-01-20 20:04:10","8e5ef0ea70509e21e61f535100ed03ac","206.251.200.220","Mozilla/5.0 (Windows NT 10.0; Win64; x64; rv:134.0) Gecko/20100101 Firefox/134.0","","Firefox","134.0","Windows","10.0","https://app.prolific.com/","en-US,en;q=0.5","677525639ae1d590af2ce48e","678b1bdf6d0aefd65c71dcd2","678eac126993576164e057a7","","null","<img    src='G_2.jpg' height='90'> <img    src='G_4.jpg' height='90'> <img    src='G_1.jpg' height='90'> <img id='selected'    src='G_7.jpg' height='90'> <img id='selected' src='G_8.jpg' height='90'> <img src='G_3.jpg' height='90'> <img src='G_5.jpg' height='90'> <img src='G_6.jpg' height='90'>","null","Animation1",""
"","","","","","html-keyboard-response","137","448308","0.0-73.0","13","1","2025-01-20 20:04:10","8e5ef0ea70509e21e61f535100ed03ac","206.251.200.220","Mozilla/5.0 (Windows NT 10.0; Win64; x64; rv:134.0) Gecko/20100101 Firefox/134.0","","Firefox","134.0","Windows","10.0","https://app.prolific.com/","en-US,en;q=0.5","677525639ae1d590af2ce48e","678b1bdf6d0aefd65c71dcd2","678eac126993576164e057a7","","null","<img    src='G_2.jpg' height='90'> <img    src='G_4.jpg' height='90'> <img    src='G_1.jpg' height='90'> <img id='swapped' src='G_8.jpg' height='90'> <img id='swapped'    src='G_7.jpg' height='90'> <img src='G_3.jpg' height='90'> <img src='G_5.jpg' height='90'> <img src='G_6.jpg' height='90'>","null","Animation1",""
"","","","","","html-keyboard-response","138","448622","0.0-74.0","13","1","2025-01-20 20:04:10","8e5ef0ea70509e21e61f535100ed03ac","206.251.200.220","Mozilla/5.0 (Windows NT 10.0; Win64; x64; rv:134.0) Gecko/20100101 Firefox/134.0","","Firefox","134.0","Windows","10.0","https://app.prolific.com/","en-US,en;q=0.5","677525639ae1d590af2ce48e","678b1bdf6d0aefd65c71dcd2","678eac126993576164e057a7","","null","<img    src='G_2.jpg' height='90'> <img    src='G_4.jpg' height='90'> <img    src='G_1.jpg' height='90'> <img  src='G_8.jpg' height='90'> <img     src='G_7.jpg' height='90'> <img src='G_3.jpg' height='90'> <img src='G_5.jpg' height='90'> <img src='G_6.jpg' height='90'>","null","Animation1",""
"","","","","","html-keyboard-response","139","449142","0.0-75.0","13","1","2025-01-20 20:04:10","8e5ef0ea70509e21e61f535100ed03ac","206.251.200.220","Mozilla/5.0 (Windows NT 10.0; Win64; x64; rv:134.0) Gecko/20100101 Firefox/134.0","","Firefox","134.0","Windows","10.0","https://app.prolific.com/","en-US,en;q=0.5","677525639ae1d590af2ce48e","678b1bdf6d0aefd65c71dcd2","678eac126993576164e057a7","","null","<img    src='G_2.jpg' height='90'> <img    src='G_4.jpg' height='90'> <img id='selected'    src='G_1.jpg' height='90'> <img  src='G_8.jpg' height='90'> <img     src='G_7.jpg' height='90'> <img src='G_3.jpg' height='90'> <img src='G_5.jpg' height='90'> <img src='G_6.jpg' height='90'>","null","Animation1",""
"","","","","","html-keyboard-response","140","449661","0.0-76.0","13","1","2025-01-20 20:04:10","8e5ef0ea70509e21e61f535100ed03ac","206.251.200.220","Mozilla/5.0 (Windows NT 10.0; Win64; x64; rv:134.0) Gecko/20100101 Firefox/134.0","","Firefox","134.0","Windows","10.0","https://app.prolific.com/","en-US,en;q=0.5","677525639ae1d590af2ce48e","678b1bdf6d0aefd65c71dcd2","678eac126993576164e057a7","","null","<img    src='G_2.jpg' height='90'> <img    src='G_4.jpg' height='90'> <img id='selected'    src='G_1.jpg' height='90'> <img id='selected'  src='G_8.jpg' height='90'> <img     src='G_7.jpg' height='90'> <img src='G_3.jpg' height='90'> <img src='G_5.jpg' height='90'> <img src='G_6.jpg' height='90'>","null","Animation1",""
"","","","","","html-keyboard-response","141","450180","0.0-77.0","13","1","2025-01-20 20:04:10","8e5ef0ea70509e21e61f535100ed03ac","206.251.200.220","Mozilla/5.0 (Windows NT 10.0; Win64; x64; rv:134.0) Gecko/20100101 Firefox/134.0","","Firefox","134.0","Windows","10.0","https://app.prolific.com/","en-US,en;q=0.5","677525639ae1d590af2ce48e","678b1bdf6d0aefd65c71dcd2","678eac126993576164e057a7","","null","<img    src='G_2.jpg' height='90'> <img    src='G_4.jpg' height='90'> <img id='swapped'  src='G_8.jpg' height='90'> <img id='swapped'    src='G_1.jpg' height='90'> <img     src='G_7.jpg' height='90'> <img src='G_3.jpg' height='90'> <img src='G_5.jpg' height='90'> <img src='G_6.jpg' height='90'>","null","Animation1",""
"","","","","","html-keyboard-response","142","450494","0.0-78.0","13","1","2025-01-20 20:04:10","8e5ef0ea70509e21e61f535100ed03ac","206.251.200.220","Mozilla/5.0 (Windows NT 10.0; Win64; x64; rv:134.0) Gecko/20100101 Firefox/134.0","","Firefox","134.0","Windows","10.0","https://app.prolific.com/","en-US,en;q=0.5","677525639ae1d590af2ce48e","678b1bdf6d0aefd65c71dcd2","678eac126993576164e057a7","","null","<img    src='G_2.jpg' height='90'> <img    src='G_4.jpg' height='90'> <img   src='G_8.jpg' height='90'> <img     src='G_1.jpg' height='90'> <img     src='G_7.jpg' height='90'> <img src='G_3.jpg' height='90'> <img src='G_5.jpg' height='90'> <img src='G_6.jpg' height='90'>","null","Animation1",""
"","","","","","html-keyboard-response","143","451012","0.0-79.0","13","1","2025-01-20 20:04:10","8e5ef0ea70509e21e61f535100ed03ac","206.251.200.220","Mozilla/5.0 (Windows NT 10.0; Win64; x64; rv:134.0) Gecko/20100101 Firefox/134.0","","Firefox","134.0","Windows","10.0","https://app.prolific.com/","en-US,en;q=0.5","677525639ae1d590af2ce48e","678b1bdf6d0aefd65c71dcd2","678eac126993576164e057a7","","null","<img    src='G_2.jpg' height='90'> <img id='selected'    src='G_4.jpg' height='90'> <img   src='G_8.jpg' height='90'> <img     src='G_1.jpg' height='90'> <img     src='G_7.jpg' height='90'> <img src='G_3.jpg' height='90'> <img src='G_5.jpg' height='90'> <img src='G_6.jpg' height='90'>","null","Animation1",""
"","","","","","html-keyboard-response","144","451531","0.0-80.0","13","1","2025-01-20 20:04:10","8e5ef0ea70509e21e61f535100ed03ac","206.251.200.220","Mozilla/5.0 (Windows NT 10.0; Win64; x64; rv:134.0) Gecko/20100101 Firefox/134.0","","Firefox","134.0","Windows","10.0","https://app.prolific.com/","en-US,en;q=0.5","677525639ae1d590af2ce48e","678b1bdf6d0aefd65c71dcd2","678eac126993576164e057a7","","null","<img    src='G_2.jpg' height='90'> <img id='selected'    src='G_4.jpg' height='90'> <img id='selected'   src='G_8.jpg' height='90'> <img     src='G_1.jpg' height='90'> <img     src='G_7.jpg' height='90'> <img src='G_3.jpg' height='90'> <img src='G_5.jpg' height='90'> <img src='G_6.jpg' height='90'>","null","Animation1",""
"","","","","","html-keyboard-response","145","452049","0.0-81.0","13","1","2025-01-20 20:04:10","8e5ef0ea70509e21e61f535100ed03ac","206.251.200.220","Mozilla/5.0 (Windows NT 10.0; Win64; x64; rv:134.0) Gecko/20100101 Firefox/134.0","","Firefox","134.0","Windows","10.0","https://app.prolific.com/","en-US,en;q=0.5","677525639ae1d590af2ce48e","678b1bdf6d0aefd65c71dcd2","678eac126993576164e057a7","","null","<img    src='G_2.jpg' height='90'> <img id='swapped'   src='G_8.jpg' height='90'> <img id='swapped'    src='G_4.jpg' height='90'> <img     src='G_1.jpg' height='90'> <img     src='G_7.jpg' height='90'> <img src='G_3.jpg' height='90'> <img src='G_5.jpg' height='90'> <img src='G_6.jpg' height='90'>","null","Animation1",""
"","","","","","html-keyboard-response","146","452364","0.0-82.0","13","1","2025-01-20 20:04:10","8e5ef0ea70509e21e61f535100ed03ac","206.251.200.220","Mozilla/5.0 (Windows NT 10.0; Win64; x64; rv:134.0) Gecko/20100101 Firefox/134.0","","Firefox","134.0","Windows","10.0","https://app.prolific.com/","en-US,en;q=0.5","677525639ae1d590af2ce48e","678b1bdf6d0aefd65c71dcd2","678eac126993576164e057a7","","null","<img    src='G_2.jpg' height='90'> <img    src='G_8.jpg' height='90'> <img     src='G_4.jpg' height='90'> <img     src='G_1.jpg' height='90'> <img     src='G_7.jpg' height='90'> <img src='G_3.jpg' height='90'> <img src='G_5.jpg' height='90'> <img src='G_6.jpg' height='90'>","null","Animation1",""
"","","","","","html-keyboard-response","147","452882","0.0-83.0","13","1","2025-01-20 20:04:10","8e5ef0ea70509e21e61f535100ed03ac","206.251.200.220","Mozilla/5.0 (Windows NT 10.0; Win64; x64; rv:134.0) Gecko/20100101 Firefox/134.0","","Firefox","134.0","Windows","10.0","https://app.prolific.com/","en-US,en;q=0.5","677525639ae1d590af2ce48e","678b1bdf6d0aefd65c71dcd2","678eac126993576164e057a7","","null","<img id='selected'    src='G_2.jpg' height='90'> <img    src='G_8.jpg' height='90'> <img     src='G_4.jpg' height='90'> <img     src='G_1.jpg' height='90'> <img     src='G_7.jpg' height='90'> <img src='G_3.jpg' height='90'> <img src='G_5.jpg' height='90'> <img src='G_6.jpg' height='90'>","null","Animation1",""
"","","","","","html-keyboard-response","148","453400","0.0-84.0","13","1","2025-01-20 20:04:10","8e5ef0ea70509e21e61f535100ed03ac","206.251.200.220","Mozilla/5.0 (Windows NT 10.0; Win64; x64; rv:134.0) Gecko/20100101 Firefox/134.0","","Firefox","134.0","Windows","10.0","https://app.prolific.com/","en-US,en;q=0.5","677525639ae1d590af2ce48e","678b1bdf6d0aefd65c71dcd2","678eac126993576164e057a7","","null","<img id='selected'    src='G_2.jpg' height='90'> <img id='selected'    src='G_8.jpg' height='90'> <img     src='G_4.jpg' height='90'> <img     src='G_1.jpg' height='90'> <img     src='G_7.jpg' height='90'> <img src='G_3.jpg' height='90'> <img src='G_5.jpg' height='90'> <img src='G_6.jpg' height='90'>","null","Animation1",""
"","","","","","html-keyboard-response","149","453919","0.0-85.0","13","1","2025-01-20 20:04:10","8e5ef0ea70509e21e61f535100ed03ac","206.251.200.220","Mozilla/5.0 (Windows NT 10.0; Win64; x64; rv:134.0) Gecko/20100101 Firefox/134.0","","Firefox","134.0","Windows","10.0","https://app.prolific.com/","en-US,en;q=0.5","677525639ae1d590af2ce48e","678b1bdf6d0aefd65c71dcd2","678eac126993576164e057a7","","null","<img id='selected'    src='G_2.jpg' height='90'> <img id='selected'    src='G_8.jpg' height='90'> <img     src='G_4.jpg' height='90'> <img     src='G_1.jpg' height='90'> <img     src='G_7.jpg' height='90'> <img src='G_3.jpg' height='90'> <img src='G_5.jpg' height='90'> <img src='G_6.jpg' height='90'>","null","Animation1",""
"","","","","","html-keyboard-response","150","454234","0.0-86.0","13","1","2025-01-20 20:04:10","8e5ef0ea70509e21e61f535100ed03ac","206.251.200.220","Mozilla/5.0 (Windows NT 10.0; Win64; x64; rv:134.0) Gecko/20100101 Firefox/134.0","","Firefox","134.0","Windows","10.0","https://app.prolific.com/","en-US,en;q=0.5","677525639ae1d590af2ce48e","678b1bdf6d0aefd65c71dcd2","678eac126993576164e057a7","","null","<img     src='G_2.jpg' height='90'> <img     src='G_8.jpg' height='90'> <img     src='G_4.jpg' height='90'> <img     src='G_1.jpg' height='90'> <img     src='G_7.jpg' height='90'> <img src='G_3.jpg' height='90'> <img src='G_5.jpg' height='90'> <img src='G_6.jpg' height='90'>","null","Animation1",""
"","","","","","html-keyboard-response","151","454752","0.0-87.0","13","1","2025-01-20 20:04:10","8e5ef0ea70509e21e61f535100ed03ac","206.251.200.220","Mozilla/5.0 (Windows NT 10.0; Win64; x64; rv:134.0) Gecko/20100101 Firefox/134.0","","Firefox","134.0","Windows","10.0","https://app.prolific.com/","en-US,en;q=0.5","677525639ae1d590af2ce48e","678b1bdf6d0aefd65c71dcd2","678eac126993576164e057a7","","null","<img     src='G_2.jpg' height='90'> <img     src='G_8.jpg' height='90'> <img     src='G_4.jpg' height='90'> <img     src='G_1.jpg' height='90'> <img id='selected'     src='G_7.jpg' height='90'> <img src='G_3.jpg' height='90'> <img src='G_5.jpg' height='90'> <img src='G_6.jpg' height='90'>","null","Animation1",""
"","","","","","html-keyboard-response","152","455270","0.0-88.0","13","1","2025-01-20 20:04:10","8e5ef0ea70509e21e61f535100ed03ac","206.251.200.220","Mozilla/5.0 (Windows NT 10.0; Win64; x64; rv:134.0) Gecko/20100101 Firefox/134.0","","Firefox","134.0","Windows","10.0","https://app.prolific.com/","en-US,en;q=0.5","677525639ae1d590af2ce48e","678b1bdf6d0aefd65c71dcd2","678eac126993576164e057a7","","null","<img     src='G_2.jpg' height='90'> <img     src='G_8.jpg' height='90'> <img     src='G_4.jpg' height='90'> <img     src='G_1.jpg' height='90'> <img id='selected'     src='G_7.jpg' height='90'> <img id='selected' src='G_3.jpg' height='90'> <img src='G_5.jpg' height='90'> <img src='G_6.jpg' height='90'>","null","Animation1",""
"","","","","","html-keyboard-response","153","455787","0.0-89.0","13","1","2025-01-20 20:04:10","8e5ef0ea70509e21e61f535100ed03ac","206.251.200.220","Mozilla/5.0 (Windows NT 10.0; Win64; x64; rv:134.0) Gecko/20100101 Firefox/134.0","","Firefox","134.0","Windows","10.0","https://app.prolific.com/","en-US,en;q=0.5","677525639ae1d590af2ce48e","678b1bdf6d0aefd65c71dcd2","678eac126993576164e057a7","","null","<img     src='G_2.jpg' height='90'> <img     src='G_8.jpg' height='90'> <img     src='G_4.jpg' height='90'> <img     src='G_1.jpg' height='90'> <img id='swapped' src='G_3.jpg' height='90'> <img id='swapped'     src='G_7.jpg' height='90'> <img src='G_5.jpg' height='90'> <img src='G_6.jpg' height='90'>","null","Animation1",""
"","","","","","html-keyboard-response","154","456102","0.0-90.0","13","1","2025-01-20 20:04:10","8e5ef0ea70509e21e61f535100ed03ac","206.251.200.220","Mozilla/5.0 (Windows NT 10.0; Win64; x64; rv:134.0) Gecko/20100101 Firefox/134.0","","Firefox","134.0","Windows","10.0","https://app.prolific.com/","en-US,en;q=0.5","677525639ae1d590af2ce48e","678b1bdf6d0aefd65c71dcd2","678eac126993576164e057a7","","null","<img     src='G_2.jpg' height='90'> <img     src='G_8.jpg' height='90'> <img     src='G_4.jpg' height='90'> <img     src='G_1.jpg' height='90'> <img  src='G_3.jpg' height='90'> <img      src='G_7.jpg' height='90'> <img src='G_5.jpg' height='90'> <img src='G_6.jpg' height='90'>","null","Animation1",""
"","","","","","html-keyboard-response","155","456620","0.0-91.0","13","1","2025-01-20 20:04:10","8e5ef0ea70509e21e61f535100ed03ac","206.251.200.220","Mozilla/5.0 (Windows NT 10.0; Win64; x64; rv:134.0) Gecko/20100101 Firefox/134.0","","Firefox","134.0","Windows","10.0","https://app.prolific.com/","en-US,en;q=0.5","677525639ae1d590af2ce48e","678b1bdf6d0aefd65c71dcd2","678eac126993576164e057a7","","null","<img     src='G_2.jpg' height='90'> <img     src='G_8.jpg' height='90'> <img     src='G_4.jpg' height='90'> <img id='selected'     src='G_1.jpg' height='90'> <img  src='G_3.jpg' height='90'> <img      src='G_7.jpg' height='90'> <img src='G_5.jpg' height='90'> <img src='G_6.jpg' height='90'>","null","Animation1",""
"","","","","","html-keyboard-response","156","457139","0.0-92.0","13","1","2025-01-20 20:04:10","8e5ef0ea70509e21e61f535100ed03ac","206.251.200.220","Mozilla/5.0 (Windows NT 10.0; Win64; x64; rv:134.0) Gecko/20100101 Firefox/134.0","","Firefox","134.0","Windows","10.0","https://app.prolific.com/","en-US,en;q=0.5","677525639ae1d590af2ce48e","678b1bdf6d0aefd65c71dcd2","678eac126993576164e057a7","","null","<img     src='G_2.jpg' height='90'> <img     src='G_8.jpg' height='90'> <img     src='G_4.jpg' height='90'> <img id='selected'     src='G_1.jpg' height='90'> <img id='selected'  src='G_3.jpg' height='90'> <img      src='G_7.jpg' height='90'> <img src='G_5.jpg' height='90'> <img src='G_6.jpg' height='90'>","null","Animation1",""
"","","","","","html-keyboard-response","157","457657","0.0-93.0","13","1","2025-01-20 20:04:10","8e5ef0ea70509e21e61f535100ed03ac","206.251.200.220","Mozilla/5.0 (Windows NT 10.0; Win64; x64; rv:134.0) Gecko/20100101 Firefox/134.0","","Firefox","134.0","Windows","10.0","https://app.prolific.com/","en-US,en;q=0.5","677525639ae1d590af2ce48e","678b1bdf6d0aefd65c71dcd2","678eac126993576164e057a7","","null","<img     src='G_2.jpg' height='90'> <img     src='G_8.jpg' height='90'> <img     src='G_4.jpg' height='90'> <img id='selected'     src='G_1.jpg' height='90'> <img id='selected'  src='G_3.jpg' height='90'> <img      src='G_7.jpg' height='90'> <img src='G_5.jpg' height='90'> <img src='G_6.jpg' height='90'>","null","Animation1",""
"","","","","","html-keyboard-response","158","457971","0.0-94.0","13","1","2025-01-20 20:04:10","8e5ef0ea70509e21e61f535100ed03ac","206.251.200.220","Mozilla/5.0 (Windows NT 10.0; Win64; x64; rv:134.0) Gecko/20100101 Firefox/134.0","","Firefox","134.0","Windows","10.0","https://app.prolific.com/","en-US,en;q=0.5","677525639ae1d590af2ce48e","678b1bdf6d0aefd65c71dcd2","678eac126993576164e057a7","","null","<img     src='G_2.jpg' height='90'> <img     src='G_8.jpg' height='90'> <img     src='G_4.jpg' height='90'> <img      src='G_1.jpg' height='90'> <img   src='G_3.jpg' height='90'> <img      src='G_7.jpg' height='90'> <img src='G_5.jpg' height='90'> <img src='G_6.jpg' height='90'>","null","Animation1",""
"","","","","","html-keyboard-response","159","458490","0.0-95.0","13","1","2025-01-20 20:04:10","8e5ef0ea70509e21e61f535100ed03ac","206.251.200.220","Mozilla/5.0 (Windows NT 10.0; Win64; x64; rv:134.0) Gecko/20100101 Firefox/134.0","","Firefox","134.0","Windows","10.0","https://app.prolific.com/","en-US,en;q=0.5","677525639ae1d590af2ce48e","678b1bdf6d0aefd65c71dcd2","678eac126993576164e057a7","","null","<img     src='G_2.jpg' height='90'> <img     src='G_8.jpg' height='90'> <img     src='G_4.jpg' height='90'> <img      src='G_1.jpg' height='90'> <img   src='G_3.jpg' height='90'> <img id='selected'      src='G_7.jpg' height='90'> <img src='G_5.jpg' height='90'> <img src='G_6.jpg' height='90'>","null","Animation1",""
"","","","","","html-keyboard-response","160","459009","0.0-96.0","13","1","2025-01-20 20:04:10","8e5ef0ea70509e21e61f535100ed03ac","206.251.200.220","Mozilla/5.0 (Windows NT 10.0; Win64; x64; rv:134.0) Gecko/20100101 Firefox/134.0","","Firefox","134.0","Windows","10.0","https://app.prolific.com/","en-US,en;q=0.5","677525639ae1d590af2ce48e","678b1bdf6d0aefd65c71dcd2","678eac126993576164e057a7","","null","<img     src='G_2.jpg' height='90'> <img     src='G_8.jpg' height='90'> <img     src='G_4.jpg' height='90'> <img      src='G_1.jpg' height='90'> <img   src='G_3.jpg' height='90'> <img id='selected'      src='G_7.jpg' height='90'> <img id='selected' src='G_5.jpg' height='90'> <img src='G_6.jpg' height='90'>","null","Animation1",""
"","","","","","html-keyboard-response","161","459527","0.0-97.0","13","1","2025-01-20 20:04:10","8e5ef0ea70509e21e61f535100ed03ac","206.251.200.220","Mozilla/5.0 (Windows NT 10.0; Win64; x64; rv:134.0) Gecko/20100101 Firefox/134.0","","Firefox","134.0","Windows","10.0","https://app.prolific.com/","en-US,en;q=0.5","677525639ae1d590af2ce48e","678b1bdf6d0aefd65c71dcd2","678eac126993576164e057a7","","null","<img     src='G_2.jpg' height='90'> <img     src='G_8.jpg' height='90'> <img     src='G_4.jpg' height='90'> <img      src='G_1.jpg' height='90'> <img   src='G_3.jpg' height='90'> <img id='selected'      src='G_7.jpg' height='90'> <img id='selected' src='G_5.jpg' height='90'> <img src='G_6.jpg' height='90'>","null","Animation1",""
"","","","","","html-keyboard-response","162","459841","0.0-98.0","13","1","2025-01-20 20:04:10","8e5ef0ea70509e21e61f535100ed03ac","206.251.200.220","Mozilla/5.0 (Windows NT 10.0; Win64; x64; rv:134.0) Gecko/20100101 Firefox/134.0","","Firefox","134.0","Windows","10.0","https://app.prolific.com/","en-US,en;q=0.5","677525639ae1d590af2ce48e","678b1bdf6d0aefd65c71dcd2","678eac126993576164e057a7","","null","<img     src='G_2.jpg' height='90'> <img     src='G_8.jpg' height='90'> <img     src='G_4.jpg' height='90'> <img      src='G_1.jpg' height='90'> <img   src='G_3.jpg' height='90'> <img       src='G_7.jpg' height='90'> <img  src='G_5.jpg' height='90'> <img src='G_6.jpg' height='90'>","null","Animation1",""
"","","","","","html-keyboard-response","163","460361","0.0-99.0","13","1","2025-01-20 20:04:10","8e5ef0ea70509e21e61f535100ed03ac","206.251.200.220","Mozilla/5.0 (Windows NT 10.0; Win64; x64; rv:134.0) Gecko/20100101 Firefox/134.0","","Firefox","134.0","Windows","10.0","https://app.prolific.com/","en-US,en;q=0.5","677525639ae1d590af2ce48e","678b1bdf6d0aefd65c71dcd2","678eac126993576164e057a7","","null","<img     src='G_2.jpg' height='90'> <img     src='G_8.jpg' height='90'> <img     src='G_4.jpg' height='90'> <img      src='G_1.jpg' height='90'> <img   src='G_3.jpg' height='90'> <img       src='G_7.jpg' height='90'> <img id='selected'  src='G_5.jpg' height='90'> <img src='G_6.jpg' height='90'>","null","Animation1",""
"","","","","","html-keyboard-response","164","460879","0.0-100.0","13","1","2025-01-20 20:04:10","8e5ef0ea70509e21e61f535100ed03ac","206.251.200.220","Mozilla/5.0 (Windows NT 10.0; Win64; x64; rv:134.0) Gecko/20100101 Firefox/134.0","","Firefox","134.0","Windows","10.0","https://app.prolific.com/","en-US,en;q=0.5","677525639ae1d590af2ce48e","678b1bdf6d0aefd65c71dcd2","678eac126993576164e057a7","","null","<img     src='G_2.jpg' height='90'> <img     src='G_8.jpg' height='90'> <img     src='G_4.jpg' height='90'> <img      src='G_1.jpg' height='90'> <img   src='G_3.jpg' height='90'> <img       src='G_7.jpg' height='90'> <img id='selected'  src='G_5.jpg' height='90'> <img id='selected' src='G_6.jpg' height='90'>","null","Animation1",""
"","","","","","html-keyboard-response","165","461397","0.0-101.0","13","1","2025-01-20 20:04:10","8e5ef0ea70509e21e61f535100ed03ac","206.251.200.220","Mozilla/5.0 (Windows NT 10.0; Win64; x64; rv:134.0) Gecko/20100101 Firefox/134.0","","Firefox","134.0","Windows","10.0","https://app.prolific.com/","en-US,en;q=0.5","677525639ae1d590af2ce48e","678b1bdf6d0aefd65c71dcd2","678eac126993576164e057a7","","null","<img     src='G_2.jpg' height='90'> <img     src='G_8.jpg' height='90'> <img     src='G_4.jpg' height='90'> <img      src='G_1.jpg' height='90'> <img   src='G_3.jpg' height='90'> <img       src='G_7.jpg' height='90'> <img id='swapped' src='G_6.jpg' height='90'> <img id='swapped'  src='G_5.jpg' height='90'>","null","Animation1",""
"","","","","","html-keyboard-response","166","461713","0.0-102.0","13","1","2025-01-20 20:04:10","8e5ef0ea70509e21e61f535100ed03ac","206.251.200.220","Mozilla/5.0 (Windows NT 10.0; Win64; x64; rv:134.0) Gecko/20100101 Firefox/134.0","","Firefox","134.0","Windows","10.0","https://app.prolific.com/","en-US,en;q=0.5","677525639ae1d590af2ce48e","678b1bdf6d0aefd65c71dcd2","678eac126993576164e057a7","","null","<img     src='G_2.jpg' height='90'> <img     src='G_8.jpg' height='90'> <img     src='G_4.jpg' height='90'> <img      src='G_1.jpg' height='90'> <img   src='G_3.jpg' height='90'> <img       src='G_7.jpg' height='90'> <img  src='G_6.jpg' height='90'> <img   src='G_5.jpg' height='90'>","null","Animation1",""
"","","","","","html-keyboard-response","167","462231","0.0-103.0","13","1","2025-01-20 20:04:10","8e5ef0ea70509e21e61f535100ed03ac","206.251.200.220","Mozilla/5.0 (Windows NT 10.0; Win64; x64; rv:134.0) Gecko/20100101 Firefox/134.0","","Firefox","134.0","Windows","10.0","https://app.prolific.com/","en-US,en;q=0.5","677525639ae1d590af2ce48e","678b1bdf6d0aefd65c71dcd2","678eac126993576164e057a7","","null","<img     src='G_2.jpg' height='90'> <img     src='G_8.jpg' height='90'> <img     src='G_4.jpg' height='90'> <img      src='G_1.jpg' height='90'> <img   src='G_3.jpg' height='90'> <img id='selected'       src='G_7.jpg' height='90'> <img  src='G_6.jpg' height='90'> <img   src='G_5.jpg' height='90'>","null","Animation1",""
"","","","","","html-keyboard-response","168","462749","0.0-104.0","13","1","2025-01-20 20:04:10","8e5ef0ea70509e21e61f535100ed03ac","206.251.200.220","Mozilla/5.0 (Windows NT 10.0; Win64; x64; rv:134.0) Gecko/20100101 Firefox/134.0","","Firefox","134.0","Windows","10.0","https://app.prolific.com/","en-US,en;q=0.5","677525639ae1d590af2ce48e","678b1bdf6d0aefd65c71dcd2","678eac126993576164e057a7","","null","<img     src='G_2.jpg' height='90'> <img     src='G_8.jpg' height='90'> <img     src='G_4.jpg' height='90'> <img      src='G_1.jpg' height='90'> <img   src='G_3.jpg' height='90'> <img id='selected'       src='G_7.jpg' height='90'> <img id='selected'  src='G_6.jpg' height='90'> <img   src='G_5.jpg' height='90'>","null","Animation1",""
"","","","","","html-keyboard-response","169","463268","0.0-105.0","13","1","2025-01-20 20:04:10","8e5ef0ea70509e21e61f535100ed03ac","206.251.200.220","Mozilla/5.0 (Windows NT 10.0; Win64; x64; rv:134.0) Gecko/20100101 Firefox/134.0","","Firefox","134.0","Windows","10.0","https://app.prolific.com/","en-US,en;q=0.5","677525639ae1d590af2ce48e","678b1bdf6d0aefd65c71dcd2","678eac126993576164e057a7","","null","<img     src='G_2.jpg' height='90'> <img     src='G_8.jpg' height='90'> <img     src='G_4.jpg' height='90'> <img      src='G_1.jpg' height='90'> <img   src='G_3.jpg' height='90'> <img id='selected'       src='G_7.jpg' height='90'> <img id='selected'  src='G_6.jpg' height='90'> <img   src='G_5.jpg' height='90'>","null","Animation1",""
"","","","","","html-keyboard-response","170","463582","0.0-106.0","13","1","2025-01-20 20:04:10","8e5ef0ea70509e21e61f535100ed03ac","206.251.200.220","Mozilla/5.0 (Windows NT 10.0; Win64; x64; rv:134.0) Gecko/20100101 Firefox/134.0","","Firefox","134.0","Windows","10.0","https://app.prolific.com/","en-US,en;q=0.5","677525639ae1d590af2ce48e","678b1bdf6d0aefd65c71dcd2","678eac126993576164e057a7","","null","<img     src='G_2.jpg' height='90'> <img     src='G_8.jpg' height='90'> <img     src='G_4.jpg' height='90'> <img      src='G_1.jpg' height='90'> <img   src='G_3.jpg' height='90'> <img        src='G_7.jpg' height='90'> <img   src='G_6.jpg' height='90'> <img   src='G_5.jpg' height='90'>","null","Animation1",""
