"success","timeout","failed_images","failed_audio","failed_video","trial_type","trial_index","time_elapsed","internal_node_id","run_id","condition","recorded_at","source_code_version","ip","user_agent","device","browser","browser_version","platform","platform_version","referer","accept_language","PROLIFIC_PID","STUDY_ID","SESSION_ID","view_history","rt","stimulus","response","phase","question_order"
"true","false","[]","[]","[]","preload","0","736","0.0-0.0","14","1","2025-01-20 20:13:58","8e5ef0ea70509e21e61f535100ed03ac","76.141.38.119","Mozilla/5.0 (X11; CrOS x86_64 14816.131.0) AppleWebKit/537.36 (KHTML, like Gecko) Chrome/103.0.0.0 Safari/537.36","WebKit","Chrome","103.0.0.0","ChromeOS","14816.131.0","https://app.prolific.com/","en-US,en;q=0.9","5b7f12c28e39df00016ad638","678b1bdf6d0aefd65c71dcd2","678eae6847a1c85b11bc678c","","","","","",""
"","","","","","instructions","1","26697","0.0-1.0","14","1","2025-01-20 20:13:58","8e5ef0ea70509e21e61f535100ed03ac","76.141.38.119","Mozilla/5.0 (X11; CrOS x86_64 14816.131.0) AppleWebKit/537.36 (KHTML, like Gecko) Chrome/103.0.0.0 Safari/537.36","WebKit","Chrome","103.0.0.0","ChromeOS","14816.131.0","https://app.prolific.com/","en-US,en;q=0.9","5b7f12c28e39df00016ad638","678b1bdf6d0aefd65c71dcd2","678eae6847a1c85b11bc678c","[{""page_index"":0,""viewing_time"":25947}]","25955","","","",""
"","","","","","html-keyboard-response","2","27209","0.0-2.0","14","1","2025-01-20 20:13:58","8e5ef0ea70509e21e61f535100ed03ac","76.141.38.119","Mozilla/5.0 (X11; CrOS x86_64 14816.131.0) AppleWebKit/537.36 (KHTML, like Gecko) Chrome/103.0.0.0 Safari/537.36","WebKit","Chrome","103.0.0.0","ChromeOS","14816.131.0","https://app.prolific.com/","en-US,en;q=0.9","5b7f12c28e39df00016ad638","678b1bdf6d0aefd65c71dcd2","678eae6847a1c85b11bc678c","","null","<p> + <p/>","null","",""
"","","","","","instructions","3","65325","0.0-3.0","14","1","2025-01-20 20:13:58","8e5ef0ea70509e21e61f535100ed03ac","76.141.38.119","Mozilla/5.0 (X11; CrOS x86_64 14816.131.0) AppleWebKit/537.36 (KHTML, like Gecko) Chrome/103.0.0.0 Safari/537.36","WebKit","Chrome","103.0.0.0","ChromeOS","14816.131.0","https://app.prolific.com/","en-US,en;q=0.9","5b7f12c28e39df00016ad638","678b1bdf6d0aefd65c71dcd2","678eae6847a1c85b11bc678c","[{""page_index"":0,""viewing_time"":2889},{""page_index"":1,""viewing_time"":10403},{""page_index"":2,""viewing_time"":10761},{""page_index"":3,""viewing_time"":3783},{""page_index"":4,""viewing_time"":10273}]","38110","","","",""
"","","","","","html-button-response","4","88303","0.0-4.0-0.0-0.0","14","1","2025-01-20 20:13:58","8e5ef0ea70509e21e61f535100ed03ac","76.141.38.119","Mozilla/5.0 (X11; CrOS x86_64 14816.131.0) AppleWebKit/537.36 (KHTML, like Gecko) Chrome/103.0.0.0 Safari/537.36","WebKit","Chrome","103.0.0.0","ChromeOS","14816.131.0","https://app.prolific.com/","en-US,en;q=0.9","5b7f12c28e39df00016ad638","678b1bdf6d0aefd65c71dcd2","678eae6847a1c85b11bc678c","","22960","","1","",""
"","","","","","html-button-response","5","89016","0.0-4.1-0.1-0.1","14","1","2025-01-20 20:13:58","8e5ef0ea70509e21e61f535100ed03ac","76.141.38.119","Mozilla/5.0 (X11; CrOS x86_64 14816.131.0) AppleWebKit/537.36 (KHTML, like Gecko) Chrome/103.0.0.0 Safari/537.36","WebKit","Chrome","103.0.0.0","ChromeOS","14816.131.0","https://app.prolific.com/","en-US,en;q=0.9","5b7f12c28e39df00016ad638","678b1bdf6d0aefd65c71dcd2","678eae6847a1c85b11bc678c","","702","","0","",""
"","","","","","html-button-response","6","93890","0.0-4.2-0.2-0.2","14","1","2025-01-20 20:13:58","8e5ef0ea70509e21e61f535100ed03ac","76.141.38.119","Mozilla/5.0 (X11; CrOS x86_64 14816.131.0) AppleWebKit/537.36 (KHTML, like Gecko) Chrome/103.0.0.0 Safari/537.36","WebKit","Chrome","103.0.0.0","ChromeOS","14816.131.0","https://app.prolific.com/","en-US,en;q=0.9","5b7f12c28e39df00016ad638","678b1bdf6d0aefd65c71dcd2","678eae6847a1c85b11bc678c","","4865","","4","",""
"","","","","","html-button-response","7","94990","0.0-4.3-0.3-0.3","14","1","2025-01-20 20:13:58","8e5ef0ea70509e21e61f535100ed03ac","76.141.38.119","Mozilla/5.0 (X11; CrOS x86_64 14816.131.0) AppleWebKit/537.36 (KHTML, like Gecko) Chrome/103.0.0.0 Safari/537.36","WebKit","Chrome","103.0.0.0","ChromeOS","14816.131.0","https://app.prolific.com/","en-US,en;q=0.9","5b7f12c28e39df00016ad638","678b1bdf6d0aefd65c71dcd2","678eae6847a1c85b11bc678c","","1087","","3","",""
"","","","","","html-button-response","8","99113","0.0-4.4-0.4-0.4","14","1","2025-01-20 20:13:58","8e5ef0ea70509e21e61f535100ed03ac","76.141.38.119","Mozilla/5.0 (X11; CrOS x86_64 14816.131.0) AppleWebKit/537.36 (KHTML, like Gecko) Chrome/103.0.0.0 Safari/537.36","WebKit","Chrome","103.0.0.0","ChromeOS","14816.131.0","https://app.prolific.com/","en-US,en;q=0.9","5b7f12c28e39df00016ad638","678b1bdf6d0aefd65c71dcd2","678eae6847a1c85b11bc678c","","4112","","2","",""
"","","","","","html-button-response","9","102796","0.0-4.5-0.5-0.5","14","1","2025-01-20 20:13:58","8e5ef0ea70509e21e61f535100ed03ac","76.141.38.119","Mozilla/5.0 (X11; CrOS x86_64 14816.131.0) AppleWebKit/537.36 (KHTML, like Gecko) Chrome/103.0.0.0 Safari/537.36","WebKit","Chrome","103.0.0.0","ChromeOS","14816.131.0","https://app.prolific.com/","en-US,en;q=0.9","5b7f12c28e39df00016ad638","678b1bdf6d0aefd65c71dcd2","678eae6847a1c85b11bc678c","","3672","","3","",""
"","","","","","html-button-response","10","104610","0.0-4.6-0.6-0.6","14","1","2025-01-20 20:13:58","8e5ef0ea70509e21e61f535100ed03ac","76.141.38.119","Mozilla/5.0 (X11; CrOS x86_64 14816.131.0) AppleWebKit/537.36 (KHTML, like Gecko) Chrome/103.0.0.0 Safari/537.36","WebKit","Chrome","103.0.0.0","ChromeOS","14816.131.0","https://app.prolific.com/","en-US,en;q=0.9","5b7f12c28e39df00016ad638","678b1bdf6d0aefd65c71dcd2","678eae6847a1c85b11bc678c","","1800","","5","",""
"","","","","","html-keyboard-response","11","126679","0.0-5.0","14","1","2025-01-20 20:13:58","8e5ef0ea70509e21e61f535100ed03ac","76.141.38.119","Mozilla/5.0 (X11; CrOS x86_64 14816.131.0) AppleWebKit/537.36 (KHTML, like Gecko) Chrome/103.0.0.0 Safari/537.36","WebKit","Chrome","103.0.0.0","ChromeOS","14816.131.0","https://app.prolific.com/","en-US,en;q=0.9","5b7f12c28e39df00016ad638","678b1bdf6d0aefd65c71dcd2","678eae6847a1c85b11bc678c","","22058","[""You sorted incorrectly by using the balance 3 times. <br><br> <img src='G_2.jpg' height='90'><img src='G_1.jpg' height='90'><img src='G_5.jpg' height='90'><img src='G_3.jpg' height='90'><img src='G_4.jpg' height='90'><br><br> Your final order is 2,4,1,3,5<br><br><br>Omgne Sort in this game will allow you to sort correctly by using the balance 8 times. Press Enter to learn it!""]","enter","",""
"","","","","","html-keyboard-response","12","130554","0.0-6.0","14","1","2025-01-20 20:13:58","8e5ef0ea70509e21e61f535100ed03ac","76.141.38.119","Mozilla/5.0 (X11; CrOS x86_64 14816.131.0) AppleWebKit/537.36 (KHTML, like Gecko) Chrome/103.0.0.0 Safari/537.36","WebKit","Chrome","103.0.0.0","ChromeOS","14816.131.0","https://app.prolific.com/","en-US,en;q=0.9","5b7f12c28e39df00016ad638","678b1bdf6d0aefd65c71dcd2","678eae6847a1c85b11bc678c","","3870","<p>Welcome to the learning phase! <br><br> You will learn by six examples. The following learning trials will not be used to calculate your performance. <br><br> Press Enter to continue.<p/>","enter","",""
"","","","","","html-keyboard-response","13","135581","0.0-7.0","14","1","2025-01-20 20:13:58","8e5ef0ea70509e21e61f535100ed03ac","76.141.38.119","Mozilla/5.0 (X11; CrOS x86_64 14816.131.0) AppleWebKit/537.36 (KHTML, like Gecko) Chrome/103.0.0.0 Safari/537.36","WebKit","Chrome","103.0.0.0","ChromeOS","14816.131.0","https://app.prolific.com/","en-US,en;q=0.9","5b7f12c28e39df00016ad638","678b1bdf6d0aefd65c71dcd2","678eae6847a1c85b11bc678c","","5019","[""Example 1<br><br>You will watch Omnge Sort in action. Try to identify any patterns in the comparisons made by this method. <br><br>Press Enter to continue.""]","enter","",""
"","","","","","html-keyboard-response","14","136094","0.0-8.0","14","1","2025-01-20 20:13:58","8e5ef0ea70509e21e61f535100ed03ac","76.141.38.119","Mozilla/5.0 (X11; CrOS x86_64 14816.131.0) AppleWebKit/537.36 (KHTML, like Gecko) Chrome/103.0.0.0 Safari/537.36","WebKit","Chrome","103.0.0.0","ChromeOS","14816.131.0","https://app.prolific.com/","en-US,en;q=0.9","5b7f12c28e39df00016ad638","678b1bdf6d0aefd65c71dcd2","678eae6847a1c85b11bc678c","","null","<img id='selected' src='G_1.jpg' height='90'> <img src='G_5.jpg' height='90'> <img src='G_3.jpg' height='90'> <img src='G_9.jpg' height='90'> <img src='G_7.jpg' height='90'>","null","Animation0",""
"","","","","","html-keyboard-response","15","136604","0.0-9.0","14","1","2025-01-20 20:13:58","8e5ef0ea70509e21e61f535100ed03ac","76.141.38.119","Mozilla/5.0 (X11; CrOS x86_64 14816.131.0) AppleWebKit/537.36 (KHTML, like Gecko) Chrome/103.0.0.0 Safari/537.36","WebKit","Chrome","103.0.0.0","ChromeOS","14816.131.0","https://app.prolific.com/","en-US,en;q=0.9","5b7f12c28e39df00016ad638","678b1bdf6d0aefd65c71dcd2","678eae6847a1c85b11bc678c","","null","<img id='selected' src='G_1.jpg' height='90'> <img id='selected' src='G_5.jpg' height='90'> <img src='G_3.jpg' height='90'> <img src='G_9.jpg' height='90'> <img src='G_7.jpg' height='90'>","null","Animation0",""
"","","","","","html-keyboard-response","16","137112","0.0-10.0","14","1","2025-01-20 20:13:58","8e5ef0ea70509e21e61f535100ed03ac","76.141.38.119","Mozilla/5.0 (X11; CrOS x86_64 14816.131.0) AppleWebKit/537.36 (KHTML, like Gecko) Chrome/103.0.0.0 Safari/537.36","WebKit","Chrome","103.0.0.0","ChromeOS","14816.131.0","https://app.prolific.com/","en-US,en;q=0.9","5b7f12c28e39df00016ad638","678b1bdf6d0aefd65c71dcd2","678eae6847a1c85b11bc678c","","null","<img id='swapped' src='G_5.jpg' height='90'> <img id='swapped' src='G_1.jpg' height='90'> <img src='G_3.jpg' height='90'> <img src='G_9.jpg' height='90'> <img src='G_7.jpg' height='90'>","null","Animation0",""
"","","","","","html-keyboard-response","17","137423","0.0-11.0","14","1","2025-01-20 20:13:58","8e5ef0ea70509e21e61f535100ed03ac","76.141.38.119","Mozilla/5.0 (X11; CrOS x86_64 14816.131.0) AppleWebKit/537.36 (KHTML, like Gecko) Chrome/103.0.0.0 Safari/537.36","WebKit","Chrome","103.0.0.0","ChromeOS","14816.131.0","https://app.prolific.com/","en-US,en;q=0.9","5b7f12c28e39df00016ad638","678b1bdf6d0aefd65c71dcd2","678eae6847a1c85b11bc678c","","null","<img  src='G_5.jpg' height='90'> <img  src='G_1.jpg' height='90'> <img src='G_3.jpg' height='90'> <img src='G_9.jpg' height='90'> <img src='G_7.jpg' height='90'>","null","Animation0",""
"","","","","","html-keyboard-response","18","137935","0.0-12.0","14","1","2025-01-20 20:13:58","8e5ef0ea70509e21e61f535100ed03ac","76.141.38.119","Mozilla/5.0 (X11; CrOS x86_64 14816.131.0) AppleWebKit/537.36 (KHTML, like Gecko) Chrome/103.0.0.0 Safari/537.36","WebKit","Chrome","103.0.0.0","ChromeOS","14816.131.0","https://app.prolific.com/","en-US,en;q=0.9","5b7f12c28e39df00016ad638","678b1bdf6d0aefd65c71dcd2","678eae6847a1c85b11bc678c","","null","<img  src='G_5.jpg' height='90'> <img id='selected'  src='G_1.jpg' height='90'> <img src='G_3.jpg' height='90'> <img src='G_9.jpg' height='90'> <img src='G_7.jpg' height='90'>","null","Animation0",""
"","","","","","html-keyboard-response","19","138448","0.0-13.0","14","1","2025-01-20 20:13:58","8e5ef0ea70509e21e61f535100ed03ac","76.141.38.119","Mozilla/5.0 (X11; CrOS x86_64 14816.131.0) AppleWebKit/537.36 (KHTML, like Gecko) Chrome/103.0.0.0 Safari/537.36","WebKit","Chrome","103.0.0.0","ChromeOS","14816.131.0","https://app.prolific.com/","en-US,en;q=0.9","5b7f12c28e39df00016ad638","678b1bdf6d0aefd65c71dcd2","678eae6847a1c85b11bc678c","","null","<img  src='G_5.jpg' height='90'> <img id='selected'  src='G_1.jpg' height='90'> <img id='selected' src='G_3.jpg' height='90'> <img src='G_9.jpg' height='90'> <img src='G_7.jpg' height='90'>","null","Animation0",""
"","","","","","html-keyboard-response","20","138960","0.0-14.0","14","1","2025-01-20 20:13:58","8e5ef0ea70509e21e61f535100ed03ac","76.141.38.119","Mozilla/5.0 (X11; CrOS x86_64 14816.131.0) AppleWebKit/537.36 (KHTML, like Gecko) Chrome/103.0.0.0 Safari/537.36","WebKit","Chrome","103.0.0.0","ChromeOS","14816.131.0","https://app.prolific.com/","en-US,en;q=0.9","5b7f12c28e39df00016ad638","678b1bdf6d0aefd65c71dcd2","678eae6847a1c85b11bc678c","","null","<img  src='G_5.jpg' height='90'> <img id='selected'  src='G_1.jpg' height='90'> <img id='selected' src='G_3.jpg' height='90'> <img src='G_9.jpg' height='90'> <img src='G_7.jpg' height='90'>","null","Animation0",""
"","","","","","html-keyboard-response","21","139272","0.0-15.0","14","1","2025-01-20 20:13:58","8e5ef0ea70509e21e61f535100ed03ac","76.141.38.119","Mozilla/5.0 (X11; CrOS x86_64 14816.131.0) AppleWebKit/537.36 (KHTML, like Gecko) Chrome/103.0.0.0 Safari/537.36","WebKit","Chrome","103.0.0.0","ChromeOS","14816.131.0","https://app.prolific.com/","en-US,en;q=0.9","5b7f12c28e39df00016ad638","678b1bdf6d0aefd65c71dcd2","678eae6847a1c85b11bc678c","","null","<img  src='G_5.jpg' height='90'> <img   src='G_1.jpg' height='90'> <img  src='G_3.jpg' height='90'> <img src='G_9.jpg' height='90'> <img src='G_7.jpg' height='90'>","null","Animation0",""
"","","","","","html-keyboard-response","22","139788","0.0-16.0","14","1","2025-01-20 20:13:58","8e5ef0ea70509e21e61f535100ed03ac","76.141.38.119","Mozilla/5.0 (X11; CrOS x86_64 14816.131.0) AppleWebKit/537.36 (KHTML, like Gecko) Chrome/103.0.0.0 Safari/537.36","WebKit","Chrome","103.0.0.0","ChromeOS","14816.131.0","https://app.prolific.com/","en-US,en;q=0.9","5b7f12c28e39df00016ad638","678b1bdf6d0aefd65c71dcd2","678eae6847a1c85b11bc678c","","null","<img  src='G_5.jpg' height='90'> <img   src='G_1.jpg' height='90'> <img id='selected'  src='G_3.jpg' height='90'> <img src='G_9.jpg' height='90'> <img src='G_7.jpg' height='90'>","null","Animation0",""
"","","","","","html-keyboard-response","23","140303","0.0-17.0","14","1","2025-01-20 20:13:58","8e5ef0ea70509e21e61f535100ed03ac","76.141.38.119","Mozilla/5.0 (X11; CrOS x86_64 14816.131.0) AppleWebKit/537.36 (KHTML, like Gecko) Chrome/103.0.0.0 Safari/537.36","WebKit","Chrome","103.0.0.0","ChromeOS","14816.131.0","https://app.prolific.com/","en-US,en;q=0.9","5b7f12c28e39df00016ad638","678b1bdf6d0aefd65c71dcd2","678eae6847a1c85b11bc678c","","null","<img  src='G_5.jpg' height='90'> <img   src='G_1.jpg' height='90'> <img id='selected'  src='G_3.jpg' height='90'> <img id='selected' src='G_9.jpg' height='90'> <img src='G_7.jpg' height='90'>","null","Animation0",""
"","","","","","html-keyboard-response","24","140818","0.0-18.0","14","1","2025-01-20 20:13:58","8e5ef0ea70509e21e61f535100ed03ac","76.141.38.119","Mozilla/5.0 (X11; CrOS x86_64 14816.131.0) AppleWebKit/537.36 (KHTML, like Gecko) Chrome/103.0.0.0 Safari/537.36","WebKit","Chrome","103.0.0.0","ChromeOS","14816.131.0","https://app.prolific.com/","en-US,en;q=0.9","5b7f12c28e39df00016ad638","678b1bdf6d0aefd65c71dcd2","678eae6847a1c85b11bc678c","","null","<img  src='G_5.jpg' height='90'> <img   src='G_1.jpg' height='90'> <img id='selected'  src='G_3.jpg' height='90'> <img id='selected' src='G_9.jpg' height='90'> <img src='G_7.jpg' height='90'>","null","Animation0",""
"","","","","","html-keyboard-response","25","141130","0.0-19.0","14","1","2025-01-20 20:13:58","8e5ef0ea70509e21e61f535100ed03ac","76.141.38.119","Mozilla/5.0 (X11; CrOS x86_64 14816.131.0) AppleWebKit/537.36 (KHTML, like Gecko) Chrome/103.0.0.0 Safari/537.36","WebKit","Chrome","103.0.0.0","ChromeOS","14816.131.0","https://app.prolific.com/","en-US,en;q=0.9","5b7f12c28e39df00016ad638","678b1bdf6d0aefd65c71dcd2","678eae6847a1c85b11bc678c","","null","<img  src='G_5.jpg' height='90'> <img   src='G_1.jpg' height='90'> <img   src='G_3.jpg' height='90'> <img  src='G_9.jpg' height='90'> <img src='G_7.jpg' height='90'>","null","Animation0",""
"","","","","","html-keyboard-response","26","141643","0.0-20.0","14","1","2025-01-20 20:13:58","8e5ef0ea70509e21e61f535100ed03ac","76.141.38.119","Mozilla/5.0 (X11; CrOS x86_64 14816.131.0) AppleWebKit/537.36 (KHTML, like Gecko) Chrome/103.0.0.0 Safari/537.36","WebKit","Chrome","103.0.0.0","ChromeOS","14816.131.0","https://app.prolific.com/","en-US,en;q=0.9","5b7f12c28e39df00016ad638","678b1bdf6d0aefd65c71dcd2","678eae6847a1c85b11bc678c","","null","<img  src='G_5.jpg' height='90'> <img   src='G_1.jpg' height='90'> <img   src='G_3.jpg' height='90'> <img id='selected'  src='G_9.jpg' height='90'> <img src='G_7.jpg' height='90'>","null","Animation0",""
"","","","","","html-keyboard-response","27","142155","0.0-21.0","14","1","2025-01-20 20:13:58","8e5ef0ea70509e21e61f535100ed03ac","76.141.38.119","Mozilla/5.0 (X11; CrOS x86_64 14816.131.0) AppleWebKit/537.36 (KHTML, like Gecko) Chrome/103.0.0.0 Safari/537.36","WebKit","Chrome","103.0.0.0","ChromeOS","14816.131.0","https://app.prolific.com/","en-US,en;q=0.9","5b7f12c28e39df00016ad638","678b1bdf6d0aefd65c71dcd2","678eae6847a1c85b11bc678c","","null","<img  src='G_5.jpg' height='90'> <img   src='G_1.jpg' height='90'> <img   src='G_3.jpg' height='90'> <img id='selected'  src='G_9.jpg' height='90'> <img id='selected' src='G_7.jpg' height='90'>","null","Animation0",""
"","","","","","html-keyboard-response","28","142662","0.0-22.0","14","1","2025-01-20 20:13:58","8e5ef0ea70509e21e61f535100ed03ac","76.141.38.119","Mozilla/5.0 (X11; CrOS x86_64 14816.131.0) AppleWebKit/537.36 (KHTML, like Gecko) Chrome/103.0.0.0 Safari/537.36","WebKit","Chrome","103.0.0.0","ChromeOS","14816.131.0","https://app.prolific.com/","en-US,en;q=0.9","5b7f12c28e39df00016ad638","678b1bdf6d0aefd65c71dcd2","678eae6847a1c85b11bc678c","","null","<img  src='G_5.jpg' height='90'> <img   src='G_1.jpg' height='90'> <img   src='G_3.jpg' height='90'> <img id='selected'  src='G_9.jpg' height='90'> <img id='selected' src='G_7.jpg' height='90'>","null","Animation0",""
"","","","","","html-keyboard-response","29","142972","0.0-23.0","14","1","2025-01-20 20:13:58","8e5ef0ea70509e21e61f535100ed03ac","76.141.38.119","Mozilla/5.0 (X11; CrOS x86_64 14816.131.0) AppleWebKit/537.36 (KHTML, like Gecko) Chrome/103.0.0.0 Safari/537.36","WebKit","Chrome","103.0.0.0","ChromeOS","14816.131.0","https://app.prolific.com/","en-US,en;q=0.9","5b7f12c28e39df00016ad638","678b1bdf6d0aefd65c71dcd2","678eae6847a1c85b11bc678c","","null","<img  src='G_5.jpg' height='90'> <img   src='G_1.jpg' height='90'> <img   src='G_3.jpg' height='90'> <img   src='G_9.jpg' height='90'> <img  src='G_7.jpg' height='90'>","null","Animation0",""
"","","","","","html-keyboard-response","30","146327","0.0-24.0","14","1","2025-01-20 20:13:58","8e5ef0ea70509e21e61f535100ed03ac","76.141.38.119","Mozilla/5.0 (X11; CrOS x86_64 14816.131.0) AppleWebKit/537.36 (KHTML, like Gecko) Chrome/103.0.0.0 Safari/537.36","WebKit","Chrome","103.0.0.0","ChromeOS","14816.131.0","https://app.prolific.com/","en-US,en;q=0.9","5b7f12c28e39df00016ad638","678b1bdf6d0aefd65c71dcd2","678eae6847a1c85b11bc678c","","3343","[""Did you notice any patterns? <br><br>Press Enter to watch that example again and follow the steps of Omgne Sort.""]","enter","",""
"","","","","","html-button-response","31","146737","0.0-25.0","14","1","2025-01-20 20:13:58","8e5ef0ea70509e21e61f535100ed03ac","76.141.38.119","Mozilla/5.0 (X11; CrOS x86_64 14816.131.0) AppleWebKit/537.36 (KHTML, like Gecko) Chrome/103.0.0.0 Safari/537.36","WebKit","Chrome","103.0.0.0","ChromeOS","14816.131.0","https://app.prolific.com/","en-US,en;q=0.9","5b7f12c28e39df00016ad638","678b1bdf6d0aefd65c71dcd2","678eae6847a1c85b11bc678c","","null","<img id='selected' src='G_1.jpg' height='90'> <img src='G_5.jpg' height='90'> <img src='G_3.jpg' height='90'> <img src='G_9.jpg' height='90'> <img src='G_7.jpg' height='90'>","null","Learning example 0",""
"","","","","","html-button-response","32","147054","0.0-26.0","14","1","2025-01-20 20:13:58","8e5ef0ea70509e21e61f535100ed03ac","76.141.38.119","Mozilla/5.0 (X11; CrOS x86_64 14816.131.0) AppleWebKit/537.36 (KHTML, like Gecko) Chrome/103.0.0.0 Safari/537.36","WebKit","Chrome","103.0.0.0","ChromeOS","14816.131.0","https://app.prolific.com/","en-US,en;q=0.9","5b7f12c28e39df00016ad638","678b1bdf6d0aefd65c71dcd2","678eae6847a1c85b11bc678c","","null","<img id='selected' src='G_1.jpg' height='90'> <img id='selected' src='G_5.jpg' height='90'> <img src='G_3.jpg' height='90'> <img src='G_9.jpg' height='90'> <img src='G_7.jpg' height='90'>","null","Learning example 0",""
"","","","","","html-button-response","33","147371","0.0-27.0","14","1","2025-01-20 20:13:58","8e5ef0ea70509e21e61f535100ed03ac","76.141.38.119","Mozilla/5.0 (X11; CrOS x86_64 14816.131.0) AppleWebKit/537.36 (KHTML, like Gecko) Chrome/103.0.0.0 Safari/537.36","WebKit","Chrome","103.0.0.0","ChromeOS","14816.131.0","https://app.prolific.com/","en-US,en;q=0.9","5b7f12c28e39df00016ad638","678b1bdf6d0aefd65c71dcd2","678eae6847a1c85b11bc678c","","null","<img id='swapped' src='G_5.jpg' height='90'> <img id='swapped' src='G_1.jpg' height='90'> <img src='G_3.jpg' height='90'> <img src='G_9.jpg' height='90'> <img src='G_7.jpg' height='90'>","null","Learning example 0",""
"","","","","","html-button-response","34","153066","0.0-28.0-0.0-0.0","14","1","2025-01-20 20:13:58","8e5ef0ea70509e21e61f535100ed03ac","76.141.38.119","Mozilla/5.0 (X11; CrOS x86_64 14816.131.0) AppleWebKit/537.36 (KHTML, like Gecko) Chrome/103.0.0.0 Safari/537.36","WebKit","Chrome","103.0.0.0","ChromeOS","14816.131.0","https://app.prolific.com/","en-US,en;q=0.9","5b7f12c28e39df00016ad638","678b1bdf6d0aefd65c71dcd2","678eae6847a1c85b11bc678c","","5677","<img id='swapped' src='G_5.jpg' height='90'> <img id='swapped' src='G_1.jpg' height='90'> <img src='G_3.jpg' height='90'> <img src='G_9.jpg' height='90'> <img src='G_7.jpg' height='90'>","1","Learning example 0",""
"","","","","","html-button-response","35","153659","0.0-28.1-0.1-0.1","14","1","2025-01-20 20:13:58","8e5ef0ea70509e21e61f535100ed03ac","76.141.38.119","Mozilla/5.0 (X11; CrOS x86_64 14816.131.0) AppleWebKit/537.36 (KHTML, like Gecko) Chrome/103.0.0.0 Safari/537.36","WebKit","Chrome","103.0.0.0","ChromeOS","14816.131.0","https://app.prolific.com/","en-US,en;q=0.9","5b7f12c28e39df00016ad638","678b1bdf6d0aefd65c71dcd2","678eae6847a1c85b11bc678c","","576","<img id='swapped' src='G_5.jpg' height='90'> <img id='swapped' src='G_1.jpg' height='90'> <img src='G_3.jpg' height='90'> <img src='G_9.jpg' height='90'> <img src='G_7.jpg' height='90'>","0","Learning example 0",""
"","","","","","html-button-response","36","153871","0.0-29.0","14","1","2025-01-20 20:13:58","8e5ef0ea70509e21e61f535100ed03ac","76.141.38.119","Mozilla/5.0 (X11; CrOS x86_64 14816.131.0) AppleWebKit/537.36 (KHTML, like Gecko) Chrome/103.0.0.0 Safari/537.36","WebKit","Chrome","103.0.0.0","ChromeOS","14816.131.0","https://app.prolific.com/","en-US,en;q=0.9","5b7f12c28e39df00016ad638","678b1bdf6d0aefd65c71dcd2","678eae6847a1c85b11bc678c","","null","<img  src='G_5.jpg' height='90'> <img  src='G_1.jpg' height='90'> <img src='G_3.jpg' height='90'> <img src='G_9.jpg' height='90'> <img src='G_7.jpg' height='90'>","null","Learning example 0",""
"","","","","","html-button-response","37","154287","0.0-30.0","14","1","2025-01-20 20:13:58","8e5ef0ea70509e21e61f535100ed03ac","76.141.38.119","Mozilla/5.0 (X11; CrOS x86_64 14816.131.0) AppleWebKit/537.36 (KHTML, like Gecko) Chrome/103.0.0.0 Safari/537.36","WebKit","Chrome","103.0.0.0","ChromeOS","14816.131.0","https://app.prolific.com/","en-US,en;q=0.9","5b7f12c28e39df00016ad638","678b1bdf6d0aefd65c71dcd2","678eae6847a1c85b11bc678c","","null","<img  src='G_5.jpg' height='90'> <img id='selected'  src='G_1.jpg' height='90'> <img src='G_3.jpg' height='90'> <img src='G_9.jpg' height='90'> <img src='G_7.jpg' height='90'>","null","Learning example 0",""
"","","","","","html-button-response","38","154603","0.0-31.0","14","1","2025-01-20 20:13:58","8e5ef0ea70509e21e61f535100ed03ac","76.141.38.119","Mozilla/5.0 (X11; CrOS x86_64 14816.131.0) AppleWebKit/537.36 (KHTML, like Gecko) Chrome/103.0.0.0 Safari/537.36","WebKit","Chrome","103.0.0.0","ChromeOS","14816.131.0","https://app.prolific.com/","en-US,en;q=0.9","5b7f12c28e39df00016ad638","678b1bdf6d0aefd65c71dcd2","678eae6847a1c85b11bc678c","","null","<img  src='G_5.jpg' height='90'> <img id='selected'  src='G_1.jpg' height='90'> <img id='selected' src='G_3.jpg' height='90'> <img src='G_9.jpg' height='90'> <img src='G_7.jpg' height='90'>","null","Learning example 0",""
"","","","","","html-button-response","39","154918","0.0-32.0","14","1","2025-01-20 20:13:58","8e5ef0ea70509e21e61f535100ed03ac","76.141.38.119","Mozilla/5.0 (X11; CrOS x86_64 14816.131.0) AppleWebKit/537.36 (KHTML, like Gecko) Chrome/103.0.0.0 Safari/537.36","WebKit","Chrome","103.0.0.0","ChromeOS","14816.131.0","https://app.prolific.com/","en-US,en;q=0.9","5b7f12c28e39df00016ad638","678b1bdf6d0aefd65c71dcd2","678eae6847a1c85b11bc678c","","null","<img  src='G_5.jpg' height='90'> <img id='selected'  src='G_1.jpg' height='90'> <img id='selected' src='G_3.jpg' height='90'> <img src='G_9.jpg' height='90'> <img src='G_7.jpg' height='90'>","null","Learning example 0",""
"","","","","","html-button-response","40","159022","0.0-33.0-0.0-0.0","14","1","2025-01-20 20:13:58","8e5ef0ea70509e21e61f535100ed03ac","76.141.38.119","Mozilla/5.0 (X11; CrOS x86_64 14816.131.0) AppleWebKit/537.36 (KHTML, like Gecko) Chrome/103.0.0.0 Safari/537.36","WebKit","Chrome","103.0.0.0","ChromeOS","14816.131.0","https://app.prolific.com/","en-US,en;q=0.9","5b7f12c28e39df00016ad638","678b1bdf6d0aefd65c71dcd2","678eae6847a1c85b11bc678c","","4085","<img  src='G_5.jpg' height='90'> <img id='selected'  src='G_1.jpg' height='90'> <img id='selected' src='G_3.jpg' height='90'> <img src='G_9.jpg' height='90'> <img src='G_7.jpg' height='90'>","1","Learning example 0",""
"","","","","","html-button-response","41","159701","0.0-33.1-0.1-0.1","14","1","2025-01-20 20:13:58","8e5ef0ea70509e21e61f535100ed03ac","76.141.38.119","Mozilla/5.0 (X11; CrOS x86_64 14816.131.0) AppleWebKit/537.36 (KHTML, like Gecko) Chrome/103.0.0.0 Safari/537.36","WebKit","Chrome","103.0.0.0","ChromeOS","14816.131.0","https://app.prolific.com/","en-US,en;q=0.9","5b7f12c28e39df00016ad638","678b1bdf6d0aefd65c71dcd2","678eae6847a1c85b11bc678c","","663","<img  src='G_5.jpg' height='90'> <img id='selected'  src='G_1.jpg' height='90'> <img id='selected' src='G_3.jpg' height='90'> <img src='G_9.jpg' height='90'> <img src='G_7.jpg' height='90'>","1","Learning example 0",""
"","","","","","html-button-response","42","161321","0.0-33.2-0.2-0.2","14","1","2025-01-20 20:13:58","8e5ef0ea70509e21e61f535100ed03ac","76.141.38.119","Mozilla/5.0 (X11; CrOS x86_64 14816.131.0) AppleWebKit/537.36 (KHTML, like Gecko) Chrome/103.0.0.0 Safari/537.36","WebKit","Chrome","103.0.0.0","ChromeOS","14816.131.0","https://app.prolific.com/","en-US,en;q=0.9","5b7f12c28e39df00016ad638","678b1bdf6d0aefd65c71dcd2","678eae6847a1c85b11bc678c","","1608","<img  src='G_5.jpg' height='90'> <img id='selected'  src='G_1.jpg' height='90'> <img id='selected' src='G_3.jpg' height='90'> <img src='G_9.jpg' height='90'> <img src='G_7.jpg' height='90'>","2","Learning example 0",""
"","","","","","html-button-response","43","161530","0.0-34.0","14","1","2025-01-20 20:13:58","8e5ef0ea70509e21e61f535100ed03ac","76.141.38.119","Mozilla/5.0 (X11; CrOS x86_64 14816.131.0) AppleWebKit/537.36 (KHTML, like Gecko) Chrome/103.0.0.0 Safari/537.36","WebKit","Chrome","103.0.0.0","ChromeOS","14816.131.0","https://app.prolific.com/","en-US,en;q=0.9","5b7f12c28e39df00016ad638","678b1bdf6d0aefd65c71dcd2","678eae6847a1c85b11bc678c","","null","<img  src='G_5.jpg' height='90'> <img   src='G_1.jpg' height='90'> <img  src='G_3.jpg' height='90'> <img src='G_9.jpg' height='90'> <img src='G_7.jpg' height='90'>","null","Learning example 0",""
"","","","","","html-button-response","44","161946","0.0-35.0","14","1","2025-01-20 20:13:58","8e5ef0ea70509e21e61f535100ed03ac","76.141.38.119","Mozilla/5.0 (X11; CrOS x86_64 14816.131.0) AppleWebKit/537.36 (KHTML, like Gecko) Chrome/103.0.0.0 Safari/537.36","WebKit","Chrome","103.0.0.0","ChromeOS","14816.131.0","https://app.prolific.com/","en-US,en;q=0.9","5b7f12c28e39df00016ad638","678b1bdf6d0aefd65c71dcd2","678eae6847a1c85b11bc678c","","null","<img  src='G_5.jpg' height='90'> <img   src='G_1.jpg' height='90'> <img id='selected'  src='G_3.jpg' height='90'> <img src='G_9.jpg' height='90'> <img src='G_7.jpg' height='90'>","null","Learning example 0",""
"","","","","","html-button-response","45","162264","0.0-36.0","14","1","2025-01-20 20:13:58","8e5ef0ea70509e21e61f535100ed03ac","76.141.38.119","Mozilla/5.0 (X11; CrOS x86_64 14816.131.0) AppleWebKit/537.36 (KHTML, like Gecko) Chrome/103.0.0.0 Safari/537.36","WebKit","Chrome","103.0.0.0","ChromeOS","14816.131.0","https://app.prolific.com/","en-US,en;q=0.9","5b7f12c28e39df00016ad638","678b1bdf6d0aefd65c71dcd2","678eae6847a1c85b11bc678c","","null","<img  src='G_5.jpg' height='90'> <img   src='G_1.jpg' height='90'> <img id='selected'  src='G_3.jpg' height='90'> <img id='selected' src='G_9.jpg' height='90'> <img src='G_7.jpg' height='90'>","null","Learning example 0",""
"","","","","","html-button-response","46","162579","0.0-37.0","14","1","2025-01-20 20:13:58","8e5ef0ea70509e21e61f535100ed03ac","76.141.38.119","Mozilla/5.0 (X11; CrOS x86_64 14816.131.0) AppleWebKit/537.36 (KHTML, like Gecko) Chrome/103.0.0.0 Safari/537.36","WebKit","Chrome","103.0.0.0","ChromeOS","14816.131.0","https://app.prolific.com/","en-US,en;q=0.9","5b7f12c28e39df00016ad638","678b1bdf6d0aefd65c71dcd2","678eae6847a1c85b11bc678c","","null","<img  src='G_5.jpg' height='90'> <img   src='G_1.jpg' height='90'> <img id='selected'  src='G_3.jpg' height='90'> <img id='selected' src='G_9.jpg' height='90'> <img src='G_7.jpg' height='90'>","null","Learning example 0",""
"","","","","","html-button-response","47","162988","0.0-38.0-0.0-0.0","14","1","2025-01-20 20:13:58","8e5ef0ea70509e21e61f535100ed03ac","76.141.38.119","Mozilla/5.0 (X11; CrOS x86_64 14816.131.0) AppleWebKit/537.36 (KHTML, like Gecko) Chrome/103.0.0.0 Safari/537.36","WebKit","Chrome","103.0.0.0","ChromeOS","14816.131.0","https://app.prolific.com/","en-US,en;q=0.9","5b7f12c28e39df00016ad638","678b1bdf6d0aefd65c71dcd2","678eae6847a1c85b11bc678c","","393","<img  src='G_5.jpg' height='90'> <img   src='G_1.jpg' height='90'> <img id='selected'  src='G_3.jpg' height='90'> <img id='selected' src='G_9.jpg' height='90'> <img src='G_7.jpg' height='90'>","2","Learning example 0",""
"","","","","","html-button-response","48","163387","0.0-38.1-0.1-0.1","14","1","2025-01-20 20:13:58","8e5ef0ea70509e21e61f535100ed03ac","76.141.38.119","Mozilla/5.0 (X11; CrOS x86_64 14816.131.0) AppleWebKit/537.36 (KHTML, like Gecko) Chrome/103.0.0.0 Safari/537.36","WebKit","Chrome","103.0.0.0","ChromeOS","14816.131.0","https://app.prolific.com/","en-US,en;q=0.9","5b7f12c28e39df00016ad638","678b1bdf6d0aefd65c71dcd2","678eae6847a1c85b11bc678c","","386","<img  src='G_5.jpg' height='90'> <img   src='G_1.jpg' height='90'> <img id='selected'  src='G_3.jpg' height='90'> <img id='selected' src='G_9.jpg' height='90'> <img src='G_7.jpg' height='90'>","3","Learning example 0",""
"","","","","","html-button-response","49","163602","0.0-39.0","14","1","2025-01-20 20:13:58","8e5ef0ea70509e21e61f535100ed03ac","76.141.38.119","Mozilla/5.0 (X11; CrOS x86_64 14816.131.0) AppleWebKit/537.36 (KHTML, like Gecko) Chrome/103.0.0.0 Safari/537.36","WebKit","Chrome","103.0.0.0","ChromeOS","14816.131.0","https://app.prolific.com/","en-US,en;q=0.9","5b7f12c28e39df00016ad638","678b1bdf6d0aefd65c71dcd2","678eae6847a1c85b11bc678c","","null","<img  src='G_5.jpg' height='90'> <img   src='G_1.jpg' height='90'> <img   src='G_3.jpg' height='90'> <img  src='G_9.jpg' height='90'> <img src='G_7.jpg' height='90'>","null","Learning example 0",""
"","","","","","html-button-response","50","164017","0.0-40.0","14","1","2025-01-20 20:13:58","8e5ef0ea70509e21e61f535100ed03ac","76.141.38.119","Mozilla/5.0 (X11; CrOS x86_64 14816.131.0) AppleWebKit/537.36 (KHTML, like Gecko) Chrome/103.0.0.0 Safari/537.36","WebKit","Chrome","103.0.0.0","ChromeOS","14816.131.0","https://app.prolific.com/","en-US,en;q=0.9","5b7f12c28e39df00016ad638","678b1bdf6d0aefd65c71dcd2","678eae6847a1c85b11bc678c","","null","<img  src='G_5.jpg' height='90'> <img   src='G_1.jpg' height='90'> <img   src='G_3.jpg' height='90'> <img id='selected'  src='G_9.jpg' height='90'> <img src='G_7.jpg' height='90'>","null","Learning example 0",""
"","","","","","html-button-response","51","164336","0.0-41.0","14","1","2025-01-20 20:13:58","8e5ef0ea70509e21e61f535100ed03ac","76.141.38.119","Mozilla/5.0 (X11; CrOS x86_64 14816.131.0) AppleWebKit/537.36 (KHTML, like Gecko) Chrome/103.0.0.0 Safari/537.36","WebKit","Chrome","103.0.0.0","ChromeOS","14816.131.0","https://app.prolific.com/","en-US,en;q=0.9","5b7f12c28e39df00016ad638","678b1bdf6d0aefd65c71dcd2","678eae6847a1c85b11bc678c","","null","<img  src='G_5.jpg' height='90'> <img   src='G_1.jpg' height='90'> <img   src='G_3.jpg' height='90'> <img id='selected'  src='G_9.jpg' height='90'> <img id='selected' src='G_7.jpg' height='90'>","null","Learning example 0",""
"","","","","","html-button-response","52","164649","0.0-42.0","14","1","2025-01-20 20:13:58","8e5ef0ea70509e21e61f535100ed03ac","76.141.38.119","Mozilla/5.0 (X11; CrOS x86_64 14816.131.0) AppleWebKit/537.36 (KHTML, like Gecko) Chrome/103.0.0.0 Safari/537.36","WebKit","Chrome","103.0.0.0","ChromeOS","14816.131.0","https://app.prolific.com/","en-US,en;q=0.9","5b7f12c28e39df00016ad638","678b1bdf6d0aefd65c71dcd2","678eae6847a1c85b11bc678c","","null","<img  src='G_5.jpg' height='90'> <img   src='G_1.jpg' height='90'> <img   src='G_3.jpg' height='90'> <img id='selected'  src='G_9.jpg' height='90'> <img id='selected' src='G_7.jpg' height='90'>","null","Learning example 0",""
"","","","","","html-button-response","53","165015","0.0-43.0-0.0-0.0","14","1","2025-01-20 20:13:58","8e5ef0ea70509e21e61f535100ed03ac","76.141.38.119","Mozilla/5.0 (X11; CrOS x86_64 14816.131.0) AppleWebKit/537.36 (KHTML, like Gecko) Chrome/103.0.0.0 Safari/537.36","WebKit","Chrome","103.0.0.0","ChromeOS","14816.131.0","https://app.prolific.com/","en-US,en;q=0.9","5b7f12c28e39df00016ad638","678b1bdf6d0aefd65c71dcd2","678eae6847a1c85b11bc678c","","348","<img  src='G_5.jpg' height='90'> <img   src='G_1.jpg' height='90'> <img   src='G_3.jpg' height='90'> <img id='selected'  src='G_9.jpg' height='90'> <img id='selected' src='G_7.jpg' height='90'>","3","Learning example 0",""
"","","","","","html-button-response","54","165627","0.0-43.1-0.1-0.1","14","1","2025-01-20 20:13:58","8e5ef0ea70509e21e61f535100ed03ac","76.141.38.119","Mozilla/5.0 (X11; CrOS x86_64 14816.131.0) AppleWebKit/537.36 (KHTML, like Gecko) Chrome/103.0.0.0 Safari/537.36","WebKit","Chrome","103.0.0.0","ChromeOS","14816.131.0","https://app.prolific.com/","en-US,en;q=0.9","5b7f12c28e39df00016ad638","678b1bdf6d0aefd65c71dcd2","678eae6847a1c85b11bc678c","","596","<img  src='G_5.jpg' height='90'> <img   src='G_1.jpg' height='90'> <img   src='G_3.jpg' height='90'> <img id='selected'  src='G_9.jpg' height='90'> <img id='selected' src='G_7.jpg' height='90'>","4","Learning example 0",""
"","","","","","html-button-response","55","165839","0.0-44.0","14","1","2025-01-20 20:13:58","8e5ef0ea70509e21e61f535100ed03ac","76.141.38.119","Mozilla/5.0 (X11; CrOS x86_64 14816.131.0) AppleWebKit/537.36 (KHTML, like Gecko) Chrome/103.0.0.0 Safari/537.36","WebKit","Chrome","103.0.0.0","ChromeOS","14816.131.0","https://app.prolific.com/","en-US,en;q=0.9","5b7f12c28e39df00016ad638","678b1bdf6d0aefd65c71dcd2","678eae6847a1c85b11bc678c","","null","<img  src='G_5.jpg' height='90'> <img   src='G_1.jpg' height='90'> <img   src='G_3.jpg' height='90'> <img   src='G_9.jpg' height='90'> <img  src='G_7.jpg' height='90'>","null","Learning example 0",""
"","","","","","html-keyboard-response","56","171519","0.0-45.0","14","1","2025-01-20 20:13:58","8e5ef0ea70509e21e61f535100ed03ac","76.141.38.119","Mozilla/5.0 (X11; CrOS x86_64 14816.131.0) AppleWebKit/537.36 (KHTML, like Gecko) Chrome/103.0.0.0 Safari/537.36","WebKit","Chrome","103.0.0.0","ChromeOS","14816.131.0","https://app.prolific.com/","en-US,en;q=0.9","5b7f12c28e39df00016ad638","678b1bdf6d0aefd65c71dcd2","678eae6847a1c85b11bc678c","","5671","[""Final order was 1,2,3,4,5. The initial order was 2,1,3,4,5.<br>It took 1 swaps to sort it correctly with Omgne Sort. <br><br>Press Enter to continue.""]","enter","",""
"","","","","","html-keyboard-response","57","175029","0.0-46.0","14","1","2025-01-20 20:13:58","8e5ef0ea70509e21e61f535100ed03ac","76.141.38.119","Mozilla/5.0 (X11; CrOS x86_64 14816.131.0) AppleWebKit/537.36 (KHTML, like Gecko) Chrome/103.0.0.0 Safari/537.36","WebKit","Chrome","103.0.0.0","ChromeOS","14816.131.0","https://app.prolific.com/","en-US,en;q=0.9","5b7f12c28e39df00016ad638","678b1bdf6d0aefd65c71dcd2","678eae6847a1c85b11bc678c","","3502","[""Example 2<br><br>You will watch Omnge Sort in action. Try to identify any patterns in the comparisons made by this method. <br><br>Press Enter to continue.""]","enter","",""
"","","","","","html-keyboard-response","58","175541","0.0-47.0","14","1","2025-01-20 20:13:58","8e5ef0ea70509e21e61f535100ed03ac","76.141.38.119","Mozilla/5.0 (X11; CrOS x86_64 14816.131.0) AppleWebKit/537.36 (KHTML, like Gecko) Chrome/103.0.0.0 Safari/537.36","WebKit","Chrome","103.0.0.0","ChromeOS","14816.131.0","https://app.prolific.com/","en-US,en;q=0.9","5b7f12c28e39df00016ad638","678b1bdf6d0aefd65c71dcd2","678eae6847a1c85b11bc678c","","null","<img id='selected' src='G_2.jpg' height='90'> <img src='G_6.jpg' height='90'> <img src='G_5.jpg' height='90'> <img src='G_1.jpg' height='90'> <img src='G_8.jpg' height='90'> <img src='G_3.jpg' height='90'> <img src='G_4.jpg' height='90'> <img src='G_7.jpg' height='90'>","null","Animation1",""
"","","","","","html-keyboard-response","59","176058","0.0-48.0","14","1","2025-01-20 20:13:58","8e5ef0ea70509e21e61f535100ed03ac","76.141.38.119","Mozilla/5.0 (X11; CrOS x86_64 14816.131.0) AppleWebKit/537.36 (KHTML, like Gecko) Chrome/103.0.0.0 Safari/537.36","WebKit","Chrome","103.0.0.0","ChromeOS","14816.131.0","https://app.prolific.com/","en-US,en;q=0.9","5b7f12c28e39df00016ad638","678b1bdf6d0aefd65c71dcd2","678eae6847a1c85b11bc678c","","null","<img id='selected' src='G_2.jpg' height='90'> <img id='selected' src='G_6.jpg' height='90'> <img src='G_5.jpg' height='90'> <img src='G_1.jpg' height='90'> <img src='G_8.jpg' height='90'> <img src='G_3.jpg' height='90'> <img src='G_4.jpg' height='90'> <img src='G_7.jpg' height='90'>","null","Animation1",""
"","","","","","html-keyboard-response","60","176570","0.0-49.0","14","1","2025-01-20 20:13:58","8e5ef0ea70509e21e61f535100ed03ac","76.141.38.119","Mozilla/5.0 (X11; CrOS x86_64 14816.131.0) AppleWebKit/537.36 (KHTML, like Gecko) Chrome/103.0.0.0 Safari/537.36","WebKit","Chrome","103.0.0.0","ChromeOS","14816.131.0","https://app.prolific.com/","en-US,en;q=0.9","5b7f12c28e39df00016ad638","678b1bdf6d0aefd65c71dcd2","678eae6847a1c85b11bc678c","","null","<img id='selected' src='G_2.jpg' height='90'> <img id='selected' src='G_6.jpg' height='90'> <img src='G_5.jpg' height='90'> <img src='G_1.jpg' height='90'> <img src='G_8.jpg' height='90'> <img src='G_3.jpg' height='90'> <img src='G_4.jpg' height='90'> <img src='G_7.jpg' height='90'>","null","Animation1",""
"","","","","","html-keyboard-response","61","176892","0.0-50.0","14","1","2025-01-20 20:13:58","8e5ef0ea70509e21e61f535100ed03ac","76.141.38.119","Mozilla/5.0 (X11; CrOS x86_64 14816.131.0) AppleWebKit/537.36 (KHTML, like Gecko) Chrome/103.0.0.0 Safari/537.36","WebKit","Chrome","103.0.0.0","ChromeOS","14816.131.0","https://app.prolific.com/","en-US,en;q=0.9","5b7f12c28e39df00016ad638","678b1bdf6d0aefd65c71dcd2","678eae6847a1c85b11bc678c","","null","<img  src='G_2.jpg' height='90'> <img  src='G_6.jpg' height='90'> <img src='G_5.jpg' height='90'> <img src='G_1.jpg' height='90'> <img src='G_8.jpg' height='90'> <img src='G_3.jpg' height='90'> <img src='G_4.jpg' height='90'> <img src='G_7.jpg' height='90'>","null","Animation1",""
"","","","","","html-keyboard-response","62","177410","0.0-51.0","14","1","2025-01-20 20:13:58","8e5ef0ea70509e21e61f535100ed03ac","76.141.38.119","Mozilla/5.0 (X11; CrOS x86_64 14816.131.0) AppleWebKit/537.36 (KHTML, like Gecko) Chrome/103.0.0.0 Safari/537.36","WebKit","Chrome","103.0.0.0","ChromeOS","14816.131.0","https://app.prolific.com/","en-US,en;q=0.9","5b7f12c28e39df00016ad638","678b1bdf6d0aefd65c71dcd2","678eae6847a1c85b11bc678c","","null","<img  src='G_2.jpg' height='90'> <img id='selected'  src='G_6.jpg' height='90'> <img src='G_5.jpg' height='90'> <img src='G_1.jpg' height='90'> <img src='G_8.jpg' height='90'> <img src='G_3.jpg' height='90'> <img src='G_4.jpg' height='90'> <img src='G_7.jpg' height='90'>","null","Animation1",""
"","","","","","html-keyboard-response","63","177927","0.0-52.0","14","1","2025-01-20 20:13:58","8e5ef0ea70509e21e61f535100ed03ac","76.141.38.119","Mozilla/5.0 (X11; CrOS x86_64 14816.131.0) AppleWebKit/537.36 (KHTML, like Gecko) Chrome/103.0.0.0 Safari/537.36","WebKit","Chrome","103.0.0.0","ChromeOS","14816.131.0","https://app.prolific.com/","en-US,en;q=0.9","5b7f12c28e39df00016ad638","678b1bdf6d0aefd65c71dcd2","678eae6847a1c85b11bc678c","","null","<img  src='G_2.jpg' height='90'> <img id='selected'  src='G_6.jpg' height='90'> <img id='selected' src='G_5.jpg' height='90'> <img src='G_1.jpg' height='90'> <img src='G_8.jpg' height='90'> <img src='G_3.jpg' height='90'> <img src='G_4.jpg' height='90'> <img src='G_7.jpg' height='90'>","null","Animation1",""
"","","","","","html-keyboard-response","64","178442","0.0-53.0","14","1","2025-01-20 20:13:58","8e5ef0ea70509e21e61f535100ed03ac","76.141.38.119","Mozilla/5.0 (X11; CrOS x86_64 14816.131.0) AppleWebKit/537.36 (KHTML, like Gecko) Chrome/103.0.0.0 Safari/537.36","WebKit","Chrome","103.0.0.0","ChromeOS","14816.131.0","https://app.prolific.com/","en-US,en;q=0.9","5b7f12c28e39df00016ad638","678b1bdf6d0aefd65c71dcd2","678eae6847a1c85b11bc678c","","null","<img  src='G_2.jpg' height='90'> <img id='swapped' src='G_5.jpg' height='90'> <img id='swapped'  src='G_6.jpg' height='90'> <img src='G_1.jpg' height='90'> <img src='G_8.jpg' height='90'> <img src='G_3.jpg' height='90'> <img src='G_4.jpg' height='90'> <img src='G_7.jpg' height='90'>","null","Animation1",""
"","","","","","html-keyboard-response","65","178761","0.0-54.0","14","1","2025-01-20 20:13:58","8e5ef0ea70509e21e61f535100ed03ac","76.141.38.119","Mozilla/5.0 (X11; CrOS x86_64 14816.131.0) AppleWebKit/537.36 (KHTML, like Gecko) Chrome/103.0.0.0 Safari/537.36","WebKit","Chrome","103.0.0.0","ChromeOS","14816.131.0","https://app.prolific.com/","en-US,en;q=0.9","5b7f12c28e39df00016ad638","678b1bdf6d0aefd65c71dcd2","678eae6847a1c85b11bc678c","","null","<img  src='G_2.jpg' height='90'> <img  src='G_5.jpg' height='90'> <img   src='G_6.jpg' height='90'> <img src='G_1.jpg' height='90'> <img src='G_8.jpg' height='90'> <img src='G_3.jpg' height='90'> <img src='G_4.jpg' height='90'> <img src='G_7.jpg' height='90'>","null","Animation1",""
"","","","","","html-keyboard-response","66","179274","0.0-55.0","14","1","2025-01-20 20:13:58","8e5ef0ea70509e21e61f535100ed03ac","76.141.38.119","Mozilla/5.0 (X11; CrOS x86_64 14816.131.0) AppleWebKit/537.36 (KHTML, like Gecko) Chrome/103.0.0.0 Safari/537.36","WebKit","Chrome","103.0.0.0","ChromeOS","14816.131.0","https://app.prolific.com/","en-US,en;q=0.9","5b7f12c28e39df00016ad638","678b1bdf6d0aefd65c71dcd2","678eae6847a1c85b11bc678c","","null","<img id='selected'  src='G_2.jpg' height='90'> <img  src='G_5.jpg' height='90'> <img   src='G_6.jpg' height='90'> <img src='G_1.jpg' height='90'> <img src='G_8.jpg' height='90'> <img src='G_3.jpg' height='90'> <img src='G_4.jpg' height='90'> <img src='G_7.jpg' height='90'>","null","Animation1",""
"","","","","","html-keyboard-response","67","179791","0.0-56.0","14","1","2025-01-20 20:13:58","8e5ef0ea70509e21e61f535100ed03ac","76.141.38.119","Mozilla/5.0 (X11; CrOS x86_64 14816.131.0) AppleWebKit/537.36 (KHTML, like Gecko) Chrome/103.0.0.0 Safari/537.36","WebKit","Chrome","103.0.0.0","ChromeOS","14816.131.0","https://app.prolific.com/","en-US,en;q=0.9","5b7f12c28e39df00016ad638","678b1bdf6d0aefd65c71dcd2","678eae6847a1c85b11bc678c","","null","<img id='selected'  src='G_2.jpg' height='90'> <img id='selected'  src='G_5.jpg' height='90'> <img   src='G_6.jpg' height='90'> <img src='G_1.jpg' height='90'> <img src='G_8.jpg' height='90'> <img src='G_3.jpg' height='90'> <img src='G_4.jpg' height='90'> <img src='G_7.jpg' height='90'>","null","Animation1",""
"","","","","","html-keyboard-response","68","180309","0.0-57.0","14","1","2025-01-20 20:13:58","8e5ef0ea70509e21e61f535100ed03ac","76.141.38.119","Mozilla/5.0 (X11; CrOS x86_64 14816.131.0) AppleWebKit/537.36 (KHTML, like Gecko) Chrome/103.0.0.0 Safari/537.36","WebKit","Chrome","103.0.0.0","ChromeOS","14816.131.0","https://app.prolific.com/","en-US,en;q=0.9","5b7f12c28e39df00016ad638","678b1bdf6d0aefd65c71dcd2","678eae6847a1c85b11bc678c","","null","<img id='swapped'  src='G_5.jpg' height='90'> <img id='swapped'  src='G_2.jpg' height='90'> <img   src='G_6.jpg' height='90'> <img src='G_1.jpg' height='90'> <img src='G_8.jpg' height='90'> <img src='G_3.jpg' height='90'> <img src='G_4.jpg' height='90'> <img src='G_7.jpg' height='90'>","null","Animation1",""
"","","","","","html-keyboard-response","69","180626","0.0-58.0","14","1","2025-01-20 20:13:58","8e5ef0ea70509e21e61f535100ed03ac","76.141.38.119","Mozilla/5.0 (X11; CrOS x86_64 14816.131.0) AppleWebKit/537.36 (KHTML, like Gecko) Chrome/103.0.0.0 Safari/537.36","WebKit","Chrome","103.0.0.0","ChromeOS","14816.131.0","https://app.prolific.com/","en-US,en;q=0.9","5b7f12c28e39df00016ad638","678b1bdf6d0aefd65c71dcd2","678eae6847a1c85b11bc678c","","null","<img   src='G_5.jpg' height='90'> <img   src='G_2.jpg' height='90'> <img   src='G_6.jpg' height='90'> <img src='G_1.jpg' height='90'> <img src='G_8.jpg' height='90'> <img src='G_3.jpg' height='90'> <img src='G_4.jpg' height='90'> <img src='G_7.jpg' height='90'>","null","Animation1",""
"","","","","","html-keyboard-response","70","181142","0.0-59.0","14","1","2025-01-20 20:13:58","8e5ef0ea70509e21e61f535100ed03ac","76.141.38.119","Mozilla/5.0 (X11; CrOS x86_64 14816.131.0) AppleWebKit/537.36 (KHTML, like Gecko) Chrome/103.0.0.0 Safari/537.36","WebKit","Chrome","103.0.0.0","ChromeOS","14816.131.0","https://app.prolific.com/","en-US,en;q=0.9","5b7f12c28e39df00016ad638","678b1bdf6d0aefd65c71dcd2","678eae6847a1c85b11bc678c","","null","<img   src='G_5.jpg' height='90'> <img   src='G_2.jpg' height='90'> <img id='selected'   src='G_6.jpg' height='90'> <img src='G_1.jpg' height='90'> <img src='G_8.jpg' height='90'> <img src='G_3.jpg' height='90'> <img src='G_4.jpg' height='90'> <img src='G_7.jpg' height='90'>","null","Animation1",""
"","","","","","html-keyboard-response","71","181656","0.0-60.0","14","1","2025-01-20 20:13:58","8e5ef0ea70509e21e61f535100ed03ac","76.141.38.119","Mozilla/5.0 (X11; CrOS x86_64 14816.131.0) AppleWebKit/537.36 (KHTML, like Gecko) Chrome/103.0.0.0 Safari/537.36","WebKit","Chrome","103.0.0.0","ChromeOS","14816.131.0","https://app.prolific.com/","en-US,en;q=0.9","5b7f12c28e39df00016ad638","678b1bdf6d0aefd65c71dcd2","678eae6847a1c85b11bc678c","","null","<img   src='G_5.jpg' height='90'> <img   src='G_2.jpg' height='90'> <img id='selected'   src='G_6.jpg' height='90'> <img id='selected' src='G_1.jpg' height='90'> <img src='G_8.jpg' height='90'> <img src='G_3.jpg' height='90'> <img src='G_4.jpg' height='90'> <img src='G_7.jpg' height='90'>","null","Animation1",""
"","","","","","html-keyboard-response","72","182173","0.0-61.0","14","1","2025-01-20 20:13:58","8e5ef0ea70509e21e61f535100ed03ac","76.141.38.119","Mozilla/5.0 (X11; CrOS x86_64 14816.131.0) AppleWebKit/537.36 (KHTML, like Gecko) Chrome/103.0.0.0 Safari/537.36","WebKit","Chrome","103.0.0.0","ChromeOS","14816.131.0","https://app.prolific.com/","en-US,en;q=0.9","5b7f12c28e39df00016ad638","678b1bdf6d0aefd65c71dcd2","678eae6847a1c85b11bc678c","","null","<img   src='G_5.jpg' height='90'> <img   src='G_2.jpg' height='90'> <img id='swapped' src='G_1.jpg' height='90'> <img id='swapped'   src='G_6.jpg' height='90'> <img src='G_8.jpg' height='90'> <img src='G_3.jpg' height='90'> <img src='G_4.jpg' height='90'> <img src='G_7.jpg' height='90'>","null","Animation1",""
"","","","","","html-keyboard-response","73","182492","0.0-62.0","14","1","2025-01-20 20:13:58","8e5ef0ea70509e21e61f535100ed03ac","76.141.38.119","Mozilla/5.0 (X11; CrOS x86_64 14816.131.0) AppleWebKit/537.36 (KHTML, like Gecko) Chrome/103.0.0.0 Safari/537.36","WebKit","Chrome","103.0.0.0","ChromeOS","14816.131.0","https://app.prolific.com/","en-US,en;q=0.9","5b7f12c28e39df00016ad638","678b1bdf6d0aefd65c71dcd2","678eae6847a1c85b11bc678c","","null","<img   src='G_5.jpg' height='90'> <img   src='G_2.jpg' height='90'> <img  src='G_1.jpg' height='90'> <img    src='G_6.jpg' height='90'> <img src='G_8.jpg' height='90'> <img src='G_3.jpg' height='90'> <img src='G_4.jpg' height='90'> <img src='G_7.jpg' height='90'>","null","Animation1",""
"","","","","","html-keyboard-response","74","183006","0.0-63.0","14","1","2025-01-20 20:13:58","8e5ef0ea70509e21e61f535100ed03ac","76.141.38.119","Mozilla/5.0 (X11; CrOS x86_64 14816.131.0) AppleWebKit/537.36 (KHTML, like Gecko) Chrome/103.0.0.0 Safari/537.36","WebKit","Chrome","103.0.0.0","ChromeOS","14816.131.0","https://app.prolific.com/","en-US,en;q=0.9","5b7f12c28e39df00016ad638","678b1bdf6d0aefd65c71dcd2","678eae6847a1c85b11bc678c","","null","<img   src='G_5.jpg' height='90'> <img id='selected'   src='G_2.jpg' height='90'> <img  src='G_1.jpg' height='90'> <img    src='G_6.jpg' height='90'> <img src='G_8.jpg' height='90'> <img src='G_3.jpg' height='90'> <img src='G_4.jpg' height='90'> <img src='G_7.jpg' height='90'>","null","Animation1",""
"","","","","","html-keyboard-response","75","183524","0.0-64.0","14","1","2025-01-20 20:13:58","8e5ef0ea70509e21e61f535100ed03ac","76.141.38.119","Mozilla/5.0 (X11; CrOS x86_64 14816.131.0) AppleWebKit/537.36 (KHTML, like Gecko) Chrome/103.0.0.0 Safari/537.36","WebKit","Chrome","103.0.0.0","ChromeOS","14816.131.0","https://app.prolific.com/","en-US,en;q=0.9","5b7f12c28e39df00016ad638","678b1bdf6d0aefd65c71dcd2","678eae6847a1c85b11bc678c","","null","<img   src='G_5.jpg' height='90'> <img id='selected'   src='G_2.jpg' height='90'> <img id='selected'  src='G_1.jpg' height='90'> <img    src='G_6.jpg' height='90'> <img src='G_8.jpg' height='90'> <img src='G_3.jpg' height='90'> <img src='G_4.jpg' height='90'> <img src='G_7.jpg' height='90'>","null","Animation1",""
"","","","","","html-keyboard-response","76","184042","0.0-65.0","14","1","2025-01-20 20:13:58","8e5ef0ea70509e21e61f535100ed03ac","76.141.38.119","Mozilla/5.0 (X11; CrOS x86_64 14816.131.0) AppleWebKit/537.36 (KHTML, like Gecko) Chrome/103.0.0.0 Safari/537.36","WebKit","Chrome","103.0.0.0","ChromeOS","14816.131.0","https://app.prolific.com/","en-US,en;q=0.9","5b7f12c28e39df00016ad638","678b1bdf6d0aefd65c71dcd2","678eae6847a1c85b11bc678c","","null","<img   src='G_5.jpg' height='90'> <img id='swapped'  src='G_1.jpg' height='90'> <img id='swapped'   src='G_2.jpg' height='90'> <img    src='G_6.jpg' height='90'> <img src='G_8.jpg' height='90'> <img src='G_3.jpg' height='90'> <img src='G_4.jpg' height='90'> <img src='G_7.jpg' height='90'>","null","Animation1",""
"","","","","","html-keyboard-response","77","184359","0.0-66.0","14","1","2025-01-20 20:13:58","8e5ef0ea70509e21e61f535100ed03ac","76.141.38.119","Mozilla/5.0 (X11; CrOS x86_64 14816.131.0) AppleWebKit/537.36 (KHTML, like Gecko) Chrome/103.0.0.0 Safari/537.36","WebKit","Chrome","103.0.0.0","ChromeOS","14816.131.0","https://app.prolific.com/","en-US,en;q=0.9","5b7f12c28e39df00016ad638","678b1bdf6d0aefd65c71dcd2","678eae6847a1c85b11bc678c","","null","<img   src='G_5.jpg' height='90'> <img   src='G_1.jpg' height='90'> <img    src='G_2.jpg' height='90'> <img    src='G_6.jpg' height='90'> <img src='G_8.jpg' height='90'> <img src='G_3.jpg' height='90'> <img src='G_4.jpg' height='90'> <img src='G_7.jpg' height='90'>","null","Animation1",""
"","","","","","html-keyboard-response","78","184878","0.0-67.0","14","1","2025-01-20 20:13:58","8e5ef0ea70509e21e61f535100ed03ac","76.141.38.119","Mozilla/5.0 (X11; CrOS x86_64 14816.131.0) AppleWebKit/537.36 (KHTML, like Gecko) Chrome/103.0.0.0 Safari/537.36","WebKit","Chrome","103.0.0.0","ChromeOS","14816.131.0","https://app.prolific.com/","en-US,en;q=0.9","5b7f12c28e39df00016ad638","678b1bdf6d0aefd65c71dcd2","678eae6847a1c85b11bc678c","","null","<img id='selected'   src='G_5.jpg' height='90'> <img   src='G_1.jpg' height='90'> <img    src='G_2.jpg' height='90'> <img    src='G_6.jpg' height='90'> <img src='G_8.jpg' height='90'> <img src='G_3.jpg' height='90'> <img src='G_4.jpg' height='90'> <img src='G_7.jpg' height='90'>","null","Animation1",""
"","","","","","html-keyboard-response","79","185397","0.0-68.0","14","1","2025-01-20 20:13:58","8e5ef0ea70509e21e61f535100ed03ac","76.141.38.119","Mozilla/5.0 (X11; CrOS x86_64 14816.131.0) AppleWebKit/537.36 (KHTML, like Gecko) Chrome/103.0.0.0 Safari/537.36","WebKit","Chrome","103.0.0.0","ChromeOS","14816.131.0","https://app.prolific.com/","en-US,en;q=0.9","5b7f12c28e39df00016ad638","678b1bdf6d0aefd65c71dcd2","678eae6847a1c85b11bc678c","","null","<img id='selected'   src='G_5.jpg' height='90'> <img id='selected'   src='G_1.jpg' height='90'> <img    src='G_2.jpg' height='90'> <img    src='G_6.jpg' height='90'> <img src='G_8.jpg' height='90'> <img src='G_3.jpg' height='90'> <img src='G_4.jpg' height='90'> <img src='G_7.jpg' height='90'>","null","Animation1",""
"","","","","","html-keyboard-response","80","185913","0.0-69.0","14","1","2025-01-20 20:13:58","8e5ef0ea70509e21e61f535100ed03ac","76.141.38.119","Mozilla/5.0 (X11; CrOS x86_64 14816.131.0) AppleWebKit/537.36 (KHTML, like Gecko) Chrome/103.0.0.0 Safari/537.36","WebKit","Chrome","103.0.0.0","ChromeOS","14816.131.0","https://app.prolific.com/","en-US,en;q=0.9","5b7f12c28e39df00016ad638","678b1bdf6d0aefd65c71dcd2","678eae6847a1c85b11bc678c","","null","<img id='swapped'   src='G_1.jpg' height='90'> <img id='swapped'   src='G_5.jpg' height='90'> <img    src='G_2.jpg' height='90'> <img    src='G_6.jpg' height='90'> <img src='G_8.jpg' height='90'> <img src='G_3.jpg' height='90'> <img src='G_4.jpg' height='90'> <img src='G_7.jpg' height='90'>","null","Animation1",""
"","","","","","html-keyboard-response","81","186228","0.0-70.0","14","1","2025-01-20 20:13:58","8e5ef0ea70509e21e61f535100ed03ac","76.141.38.119","Mozilla/5.0 (X11; CrOS x86_64 14816.131.0) AppleWebKit/537.36 (KHTML, like Gecko) Chrome/103.0.0.0 Safari/537.36","WebKit","Chrome","103.0.0.0","ChromeOS","14816.131.0","https://app.prolific.com/","en-US,en;q=0.9","5b7f12c28e39df00016ad638","678b1bdf6d0aefd65c71dcd2","678eae6847a1c85b11bc678c","","null","<img    src='G_1.jpg' height='90'> <img    src='G_5.jpg' height='90'> <img    src='G_2.jpg' height='90'> <img    src='G_6.jpg' height='90'> <img src='G_8.jpg' height='90'> <img src='G_3.jpg' height='90'> <img src='G_4.jpg' height='90'> <img src='G_7.jpg' height='90'>","null","Animation1",""
"","","","","","html-keyboard-response","82","186744","0.0-71.0","14","1","2025-01-20 20:13:58","8e5ef0ea70509e21e61f535100ed03ac","76.141.38.119","Mozilla/5.0 (X11; CrOS x86_64 14816.131.0) AppleWebKit/537.36 (KHTML, like Gecko) Chrome/103.0.0.0 Safari/537.36","WebKit","Chrome","103.0.0.0","ChromeOS","14816.131.0","https://app.prolific.com/","en-US,en;q=0.9","5b7f12c28e39df00016ad638","678b1bdf6d0aefd65c71dcd2","678eae6847a1c85b11bc678c","","null","<img    src='G_1.jpg' height='90'> <img    src='G_5.jpg' height='90'> <img    src='G_2.jpg' height='90'> <img id='selected'    src='G_6.jpg' height='90'> <img src='G_8.jpg' height='90'> <img src='G_3.jpg' height='90'> <img src='G_4.jpg' height='90'> <img src='G_7.jpg' height='90'>","null","Animation1",""
"","","","","","html-keyboard-response","83","187260","0.0-72.0","14","1","2025-01-20 20:13:58","8e5ef0ea70509e21e61f535100ed03ac","76.141.38.119","Mozilla/5.0 (X11; CrOS x86_64 14816.131.0) AppleWebKit/537.36 (KHTML, like Gecko) Chrome/103.0.0.0 Safari/537.36","WebKit","Chrome","103.0.0.0","ChromeOS","14816.131.0","https://app.prolific.com/","en-US,en;q=0.9","5b7f12c28e39df00016ad638","678b1bdf6d0aefd65c71dcd2","678eae6847a1c85b11bc678c","","null","<img    src='G_1.jpg' height='90'> <img    src='G_5.jpg' height='90'> <img    src='G_2.jpg' height='90'> <img id='selected'    src='G_6.jpg' height='90'> <img id='selected' src='G_8.jpg' height='90'> <img src='G_3.jpg' height='90'> <img src='G_4.jpg' height='90'> <img src='G_7.jpg' height='90'>","null","Animation1",""
"","","","","","html-keyboard-response","84","187776","0.0-73.0","14","1","2025-01-20 20:13:58","8e5ef0ea70509e21e61f535100ed03ac","76.141.38.119","Mozilla/5.0 (X11; CrOS x86_64 14816.131.0) AppleWebKit/537.36 (KHTML, like Gecko) Chrome/103.0.0.0 Safari/537.36","WebKit","Chrome","103.0.0.0","ChromeOS","14816.131.0","https://app.prolific.com/","en-US,en;q=0.9","5b7f12c28e39df00016ad638","678b1bdf6d0aefd65c71dcd2","678eae6847a1c85b11bc678c","","null","<img    src='G_1.jpg' height='90'> <img    src='G_5.jpg' height='90'> <img    src='G_2.jpg' height='90'> <img id='swapped' src='G_8.jpg' height='90'> <img id='swapped'    src='G_6.jpg' height='90'> <img src='G_3.jpg' height='90'> <img src='G_4.jpg' height='90'> <img src='G_7.jpg' height='90'>","null","Animation1",""
"","","","","","html-keyboard-response","85","188093","0.0-74.0","14","1","2025-01-20 20:13:58","8e5ef0ea70509e21e61f535100ed03ac","76.141.38.119","Mozilla/5.0 (X11; CrOS x86_64 14816.131.0) AppleWebKit/537.36 (KHTML, like Gecko) Chrome/103.0.0.0 Safari/537.36","WebKit","Chrome","103.0.0.0","ChromeOS","14816.131.0","https://app.prolific.com/","en-US,en;q=0.9","5b7f12c28e39df00016ad638","678b1bdf6d0aefd65c71dcd2","678eae6847a1c85b11bc678c","","null","<img    src='G_1.jpg' height='90'> <img    src='G_5.jpg' height='90'> <img    src='G_2.jpg' height='90'> <img  src='G_8.jpg' height='90'> <img     src='G_6.jpg' height='90'> <img src='G_3.jpg' height='90'> <img src='G_4.jpg' height='90'> <img src='G_7.jpg' height='90'>","null","Animation1",""
"","","","","","html-keyboard-response","86","188610","0.0-75.0","14","1","2025-01-20 20:13:58","8e5ef0ea70509e21e61f535100ed03ac","76.141.38.119","Mozilla/5.0 (X11; CrOS x86_64 14816.131.0) AppleWebKit/537.36 (KHTML, like Gecko) Chrome/103.0.0.0 Safari/537.36","WebKit","Chrome","103.0.0.0","ChromeOS","14816.131.0","https://app.prolific.com/","en-US,en;q=0.9","5b7f12c28e39df00016ad638","678b1bdf6d0aefd65c71dcd2","678eae6847a1c85b11bc678c","","null","<img    src='G_1.jpg' height='90'> <img    src='G_5.jpg' height='90'> <img id='selected'    src='G_2.jpg' height='90'> <img  src='G_8.jpg' height='90'> <img     src='G_6.jpg' height='90'> <img src='G_3.jpg' height='90'> <img src='G_4.jpg' height='90'> <img src='G_7.jpg' height='90'>","null","Animation1",""
"","","","","","html-keyboard-response","87","189124","0.0-76.0","14","1","2025-01-20 20:13:58","8e5ef0ea70509e21e61f535100ed03ac","76.141.38.119","Mozilla/5.0 (X11; CrOS x86_64 14816.131.0) AppleWebKit/537.36 (KHTML, like Gecko) Chrome/103.0.0.0 Safari/537.36","WebKit","Chrome","103.0.0.0","ChromeOS","14816.131.0","https://app.prolific.com/","en-US,en;q=0.9","5b7f12c28e39df00016ad638","678b1bdf6d0aefd65c71dcd2","678eae6847a1c85b11bc678c","","null","<img    src='G_1.jpg' height='90'> <img    src='G_5.jpg' height='90'> <img id='selected'    src='G_2.jpg' height='90'> <img id='selected'  src='G_8.jpg' height='90'> <img     src='G_6.jpg' height='90'> <img src='G_3.jpg' height='90'> <img src='G_4.jpg' height='90'> <img src='G_7.jpg' height='90'>","null","Animation1",""
"","","","","","html-keyboard-response","88","189643","0.0-77.0","14","1","2025-01-20 20:13:58","8e5ef0ea70509e21e61f535100ed03ac","76.141.38.119","Mozilla/5.0 (X11; CrOS x86_64 14816.131.0) AppleWebKit/537.36 (KHTML, like Gecko) Chrome/103.0.0.0 Safari/537.36","WebKit","Chrome","103.0.0.0","ChromeOS","14816.131.0","https://app.prolific.com/","en-US,en;q=0.9","5b7f12c28e39df00016ad638","678b1bdf6d0aefd65c71dcd2","678eae6847a1c85b11bc678c","","null","<img    src='G_1.jpg' height='90'> <img    src='G_5.jpg' height='90'> <img id='swapped'  src='G_8.jpg' height='90'> <img id='swapped'    src='G_2.jpg' height='90'> <img     src='G_6.jpg' height='90'> <img src='G_3.jpg' height='90'> <img src='G_4.jpg' height='90'> <img src='G_7.jpg' height='90'>","null","Animation1",""
"","","","","","html-keyboard-response","89","189959","0.0-78.0","14","1","2025-01-20 20:13:58","8e5ef0ea70509e21e61f535100ed03ac","76.141.38.119","Mozilla/5.0 (X11; CrOS x86_64 14816.131.0) AppleWebKit/537.36 (KHTML, like Gecko) Chrome/103.0.0.0 Safari/537.36","WebKit","Chrome","103.0.0.0","ChromeOS","14816.131.0","https://app.prolific.com/","en-US,en;q=0.9","5b7f12c28e39df00016ad638","678b1bdf6d0aefd65c71dcd2","678eae6847a1c85b11bc678c","","null","<img    src='G_1.jpg' height='90'> <img    src='G_5.jpg' height='90'> <img   src='G_8.jpg' height='90'> <img     src='G_2.jpg' height='90'> <img     src='G_6.jpg' height='90'> <img src='G_3.jpg' height='90'> <img src='G_4.jpg' height='90'> <img src='G_7.jpg' height='90'>","null","Animation1",""
"","","","","","html-keyboard-response","90","190477","0.0-79.0","14","1","2025-01-20 20:13:58","8e5ef0ea70509e21e61f535100ed03ac","76.141.38.119","Mozilla/5.0 (X11; CrOS x86_64 14816.131.0) AppleWebKit/537.36 (KHTML, like Gecko) Chrome/103.0.0.0 Safari/537.36","WebKit","Chrome","103.0.0.0","ChromeOS","14816.131.0","https://app.prolific.com/","en-US,en;q=0.9","5b7f12c28e39df00016ad638","678b1bdf6d0aefd65c71dcd2","678eae6847a1c85b11bc678c","","null","<img    src='G_1.jpg' height='90'> <img id='selected'    src='G_5.jpg' height='90'> <img   src='G_8.jpg' height='90'> <img     src='G_2.jpg' height='90'> <img     src='G_6.jpg' height='90'> <img src='G_3.jpg' height='90'> <img src='G_4.jpg' height='90'> <img src='G_7.jpg' height='90'>","null","Animation1",""
"","","","","","html-keyboard-response","91","190996","0.0-80.0","14","1","2025-01-20 20:13:58","8e5ef0ea70509e21e61f535100ed03ac","76.141.38.119","Mozilla/5.0 (X11; CrOS x86_64 14816.131.0) AppleWebKit/537.36 (KHTML, like Gecko) Chrome/103.0.0.0 Safari/537.36","WebKit","Chrome","103.0.0.0","ChromeOS","14816.131.0","https://app.prolific.com/","en-US,en;q=0.9","5b7f12c28e39df00016ad638","678b1bdf6d0aefd65c71dcd2","678eae6847a1c85b11bc678c","","null","<img    src='G_1.jpg' height='90'> <img id='selected'    src='G_5.jpg' height='90'> <img id='selected'   src='G_8.jpg' height='90'> <img     src='G_2.jpg' height='90'> <img     src='G_6.jpg' height='90'> <img src='G_3.jpg' height='90'> <img src='G_4.jpg' height='90'> <img src='G_7.jpg' height='90'>","null","Animation1",""
"","","","","","html-keyboard-response","92","191513","0.0-81.0","14","1","2025-01-20 20:13:58","8e5ef0ea70509e21e61f535100ed03ac","76.141.38.119","Mozilla/5.0 (X11; CrOS x86_64 14816.131.0) AppleWebKit/537.36 (KHTML, like Gecko) Chrome/103.0.0.0 Safari/537.36","WebKit","Chrome","103.0.0.0","ChromeOS","14816.131.0","https://app.prolific.com/","en-US,en;q=0.9","5b7f12c28e39df00016ad638","678b1bdf6d0aefd65c71dcd2","678eae6847a1c85b11bc678c","","null","<img    src='G_1.jpg' height='90'> <img id='swapped'   src='G_8.jpg' height='90'> <img id='swapped'    src='G_5.jpg' height='90'> <img     src='G_2.jpg' height='90'> <img     src='G_6.jpg' height='90'> <img src='G_3.jpg' height='90'> <img src='G_4.jpg' height='90'> <img src='G_7.jpg' height='90'>","null","Animation1",""
"","","","","","html-keyboard-response","93","191833","0.0-82.0","14","1","2025-01-20 20:13:58","8e5ef0ea70509e21e61f535100ed03ac","76.141.38.119","Mozilla/5.0 (X11; CrOS x86_64 14816.131.0) AppleWebKit/537.36 (KHTML, like Gecko) Chrome/103.0.0.0 Safari/537.36","WebKit","Chrome","103.0.0.0","ChromeOS","14816.131.0","https://app.prolific.com/","en-US,en;q=0.9","5b7f12c28e39df00016ad638","678b1bdf6d0aefd65c71dcd2","678eae6847a1c85b11bc678c","","null","<img    src='G_1.jpg' height='90'> <img    src='G_8.jpg' height='90'> <img     src='G_5.jpg' height='90'> <img     src='G_2.jpg' height='90'> <img     src='G_6.jpg' height='90'> <img src='G_3.jpg' height='90'> <img src='G_4.jpg' height='90'> <img src='G_7.jpg' height='90'>","null","Animation1",""
"","","","","","html-keyboard-response","94","192356","0.0-83.0","14","1","2025-01-20 20:13:58","8e5ef0ea70509e21e61f535100ed03ac","76.141.38.119","Mozilla/5.0 (X11; CrOS x86_64 14816.131.0) AppleWebKit/537.36 (KHTML, like Gecko) Chrome/103.0.0.0 Safari/537.36","WebKit","Chrome","103.0.0.0","ChromeOS","14816.131.0","https://app.prolific.com/","en-US,en;q=0.9","5b7f12c28e39df00016ad638","678b1bdf6d0aefd65c71dcd2","678eae6847a1c85b11bc678c","","null","<img id='selected'    src='G_1.jpg' height='90'> <img    src='G_8.jpg' height='90'> <img     src='G_5.jpg' height='90'> <img     src='G_2.jpg' height='90'> <img     src='G_6.jpg' height='90'> <img src='G_3.jpg' height='90'> <img src='G_4.jpg' height='90'> <img src='G_7.jpg' height='90'>","null","Animation1",""
"","","","","","html-keyboard-response","95","192876","0.0-84.0","14","1","2025-01-20 20:13:58","8e5ef0ea70509e21e61f535100ed03ac","76.141.38.119","Mozilla/5.0 (X11; CrOS x86_64 14816.131.0) AppleWebKit/537.36 (KHTML, like Gecko) Chrome/103.0.0.0 Safari/537.36","WebKit","Chrome","103.0.0.0","ChromeOS","14816.131.0","https://app.prolific.com/","en-US,en;q=0.9","5b7f12c28e39df00016ad638","678b1bdf6d0aefd65c71dcd2","678eae6847a1c85b11bc678c","","null","<img id='selected'    src='G_1.jpg' height='90'> <img id='selected'    src='G_8.jpg' height='90'> <img     src='G_5.jpg' height='90'> <img     src='G_2.jpg' height='90'> <img     src='G_6.jpg' height='90'> <img src='G_3.jpg' height='90'> <img src='G_4.jpg' height='90'> <img src='G_7.jpg' height='90'>","null","Animation1",""
"","","","","","html-keyboard-response","96","193392","0.0-85.0","14","1","2025-01-20 20:13:58","8e5ef0ea70509e21e61f535100ed03ac","76.141.38.119","Mozilla/5.0 (X11; CrOS x86_64 14816.131.0) AppleWebKit/537.36 (KHTML, like Gecko) Chrome/103.0.0.0 Safari/537.36","WebKit","Chrome","103.0.0.0","ChromeOS","14816.131.0","https://app.prolific.com/","en-US,en;q=0.9","5b7f12c28e39df00016ad638","678b1bdf6d0aefd65c71dcd2","678eae6847a1c85b11bc678c","","null","<img id='selected'    src='G_1.jpg' height='90'> <img id='selected'    src='G_8.jpg' height='90'> <img     src='G_5.jpg' height='90'> <img     src='G_2.jpg' height='90'> <img     src='G_6.jpg' height='90'> <img src='G_3.jpg' height='90'> <img src='G_4.jpg' height='90'> <img src='G_7.jpg' height='90'>","null","Animation1",""
"","","","","","html-keyboard-response","97","193711","0.0-86.0","14","1","2025-01-20 20:13:58","8e5ef0ea70509e21e61f535100ed03ac","76.141.38.119","Mozilla/5.0 (X11; CrOS x86_64 14816.131.0) AppleWebKit/537.36 (KHTML, like Gecko) Chrome/103.0.0.0 Safari/537.36","WebKit","Chrome","103.0.0.0","ChromeOS","14816.131.0","https://app.prolific.com/","en-US,en;q=0.9","5b7f12c28e39df00016ad638","678b1bdf6d0aefd65c71dcd2","678eae6847a1c85b11bc678c","","null","<img     src='G_1.jpg' height='90'> <img     src='G_8.jpg' height='90'> <img     src='G_5.jpg' height='90'> <img     src='G_2.jpg' height='90'> <img     src='G_6.jpg' height='90'> <img src='G_3.jpg' height='90'> <img src='G_4.jpg' height='90'> <img src='G_7.jpg' height='90'>","null","Animation1",""
"","","","","","html-keyboard-response","98","194226","0.0-87.0","14","1","2025-01-20 20:13:58","8e5ef0ea70509e21e61f535100ed03ac","76.141.38.119","Mozilla/5.0 (X11; CrOS x86_64 14816.131.0) AppleWebKit/537.36 (KHTML, like Gecko) Chrome/103.0.0.0 Safari/537.36","WebKit","Chrome","103.0.0.0","ChromeOS","14816.131.0","https://app.prolific.com/","en-US,en;q=0.9","5b7f12c28e39df00016ad638","678b1bdf6d0aefd65c71dcd2","678eae6847a1c85b11bc678c","","null","<img     src='G_1.jpg' height='90'> <img     src='G_8.jpg' height='90'> <img     src='G_5.jpg' height='90'> <img     src='G_2.jpg' height='90'> <img id='selected'     src='G_6.jpg' height='90'> <img src='G_3.jpg' height='90'> <img src='G_4.jpg' height='90'> <img src='G_7.jpg' height='90'>","null","Animation1",""
"","","","","","html-keyboard-response","99","194743","0.0-88.0","14","1","2025-01-20 20:13:58","8e5ef0ea70509e21e61f535100ed03ac","76.141.38.119","Mozilla/5.0 (X11; CrOS x86_64 14816.131.0) AppleWebKit/537.36 (KHTML, like Gecko) Chrome/103.0.0.0 Safari/537.36","WebKit","Chrome","103.0.0.0","ChromeOS","14816.131.0","https://app.prolific.com/","en-US,en;q=0.9","5b7f12c28e39df00016ad638","678b1bdf6d0aefd65c71dcd2","678eae6847a1c85b11bc678c","","null","<img     src='G_1.jpg' height='90'> <img     src='G_8.jpg' height='90'> <img     src='G_5.jpg' height='90'> <img     src='G_2.jpg' height='90'> <img id='selected'     src='G_6.jpg' height='90'> <img id='selected' src='G_3.jpg' height='90'> <img src='G_4.jpg' height='90'> <img src='G_7.jpg' height='90'>","null","Animation1",""
"","","","","","html-keyboard-response","100","195260","0.0-89.0","14","1","2025-01-20 20:13:58","8e5ef0ea70509e21e61f535100ed03ac","76.141.38.119","Mozilla/5.0 (X11; CrOS x86_64 14816.131.0) AppleWebKit/537.36 (KHTML, like Gecko) Chrome/103.0.0.0 Safari/537.36","WebKit","Chrome","103.0.0.0","ChromeOS","14816.131.0","https://app.prolific.com/","en-US,en;q=0.9","5b7f12c28e39df00016ad638","678b1bdf6d0aefd65c71dcd2","678eae6847a1c85b11bc678c","","null","<img     src='G_1.jpg' height='90'> <img     src='G_8.jpg' height='90'> <img     src='G_5.jpg' height='90'> <img     src='G_2.jpg' height='90'> <img id='swapped' src='G_3.jpg' height='90'> <img id='swapped'     src='G_6.jpg' height='90'> <img src='G_4.jpg' height='90'> <img src='G_7.jpg' height='90'>","null","Animation1",""
"","","","","","html-keyboard-response","101","195578","0.0-90.0","14","1","2025-01-20 20:13:58","8e5ef0ea70509e21e61f535100ed03ac","76.141.38.119","Mozilla/5.0 (X11; CrOS x86_64 14816.131.0) AppleWebKit/537.36 (KHTML, like Gecko) Chrome/103.0.0.0 Safari/537.36","WebKit","Chrome","103.0.0.0","ChromeOS","14816.131.0","https://app.prolific.com/","en-US,en;q=0.9","5b7f12c28e39df00016ad638","678b1bdf6d0aefd65c71dcd2","678eae6847a1c85b11bc678c","","null","<img     src='G_1.jpg' height='90'> <img     src='G_8.jpg' height='90'> <img     src='G_5.jpg' height='90'> <img     src='G_2.jpg' height='90'> <img  src='G_3.jpg' height='90'> <img      src='G_6.jpg' height='90'> <img src='G_4.jpg' height='90'> <img src='G_7.jpg' height='90'>","null","Animation1",""
"","","","","","html-keyboard-response","102","196093","0.0-91.0","14","1","2025-01-20 20:13:58","8e5ef0ea70509e21e61f535100ed03ac","76.141.38.119","Mozilla/5.0 (X11; CrOS x86_64 14816.131.0) AppleWebKit/537.36 (KHTML, like Gecko) Chrome/103.0.0.0 Safari/537.36","WebKit","Chrome","103.0.0.0","ChromeOS","14816.131.0","https://app.prolific.com/","en-US,en;q=0.9","5b7f12c28e39df00016ad638","678b1bdf6d0aefd65c71dcd2","678eae6847a1c85b11bc678c","","null","<img     src='G_1.jpg' height='90'> <img     src='G_8.jpg' height='90'> <img     src='G_5.jpg' height='90'> <img id='selected'     src='G_2.jpg' height='90'> <img  src='G_3.jpg' height='90'> <img      src='G_6.jpg' height='90'> <img src='G_4.jpg' height='90'> <img src='G_7.jpg' height='90'>","null","Animation1",""
"","","","","","html-keyboard-response","103","196611","0.0-92.0","14","1","2025-01-20 20:13:58","8e5ef0ea70509e21e61f535100ed03ac","76.141.38.119","Mozilla/5.0 (X11; CrOS x86_64 14816.131.0) AppleWebKit/537.36 (KHTML, like Gecko) Chrome/103.0.0.0 Safari/537.36","WebKit","Chrome","103.0.0.0","ChromeOS","14816.131.0","https://app.prolific.com/","en-US,en;q=0.9","5b7f12c28e39df00016ad638","678b1bdf6d0aefd65c71dcd2","678eae6847a1c85b11bc678c","","null","<img     src='G_1.jpg' height='90'> <img     src='G_8.jpg' height='90'> <img     src='G_5.jpg' height='90'> <img id='selected'     src='G_2.jpg' height='90'> <img id='selected'  src='G_3.jpg' height='90'> <img      src='G_6.jpg' height='90'> <img src='G_4.jpg' height='90'> <img src='G_7.jpg' height='90'>","null","Animation1",""
"","","","","","html-keyboard-response","104","197128","0.0-93.0","14","1","2025-01-20 20:13:58","8e5ef0ea70509e21e61f535100ed03ac","76.141.38.119","Mozilla/5.0 (X11; CrOS x86_64 14816.131.0) AppleWebKit/537.36 (KHTML, like Gecko) Chrome/103.0.0.0 Safari/537.36","WebKit","Chrome","103.0.0.0","ChromeOS","14816.131.0","https://app.prolific.com/","en-US,en;q=0.9","5b7f12c28e39df00016ad638","678b1bdf6d0aefd65c71dcd2","678eae6847a1c85b11bc678c","","null","<img     src='G_1.jpg' height='90'> <img     src='G_8.jpg' height='90'> <img     src='G_5.jpg' height='90'> <img id='selected'     src='G_2.jpg' height='90'> <img id='selected'  src='G_3.jpg' height='90'> <img      src='G_6.jpg' height='90'> <img src='G_4.jpg' height='90'> <img src='G_7.jpg' height='90'>","null","Animation1",""
"","","","","","html-keyboard-response","105","197443","0.0-94.0","14","1","2025-01-20 20:13:58","8e5ef0ea70509e21e61f535100ed03ac","76.141.38.119","Mozilla/5.0 (X11; CrOS x86_64 14816.131.0) AppleWebKit/537.36 (KHTML, like Gecko) Chrome/103.0.0.0 Safari/537.36","WebKit","Chrome","103.0.0.0","ChromeOS","14816.131.0","https://app.prolific.com/","en-US,en;q=0.9","5b7f12c28e39df00016ad638","678b1bdf6d0aefd65c71dcd2","678eae6847a1c85b11bc678c","","null","<img     src='G_1.jpg' height='90'> <img     src='G_8.jpg' height='90'> <img     src='G_5.jpg' height='90'> <img      src='G_2.jpg' height='90'> <img   src='G_3.jpg' height='90'> <img      src='G_6.jpg' height='90'> <img src='G_4.jpg' height='90'> <img src='G_7.jpg' height='90'>","null","Animation1",""
"","","","","","html-keyboard-response","106","197959","0.0-95.0","14","1","2025-01-20 20:13:58","8e5ef0ea70509e21e61f535100ed03ac","76.141.38.119","Mozilla/5.0 (X11; CrOS x86_64 14816.131.0) AppleWebKit/537.36 (KHTML, like Gecko) Chrome/103.0.0.0 Safari/537.36","WebKit","Chrome","103.0.0.0","ChromeOS","14816.131.0","https://app.prolific.com/","en-US,en;q=0.9","5b7f12c28e39df00016ad638","678b1bdf6d0aefd65c71dcd2","678eae6847a1c85b11bc678c","","null","<img     src='G_1.jpg' height='90'> <img     src='G_8.jpg' height='90'> <img     src='G_5.jpg' height='90'> <img      src='G_2.jpg' height='90'> <img   src='G_3.jpg' height='90'> <img id='selected'      src='G_6.jpg' height='90'> <img src='G_4.jpg' height='90'> <img src='G_7.jpg' height='90'>","null","Animation1",""
"","","","","","html-keyboard-response","107","198475","0.0-96.0","14","1","2025-01-20 20:13:58","8e5ef0ea70509e21e61f535100ed03ac","76.141.38.119","Mozilla/5.0 (X11; CrOS x86_64 14816.131.0) AppleWebKit/537.36 (KHTML, like Gecko) Chrome/103.0.0.0 Safari/537.36","WebKit","Chrome","103.0.0.0","ChromeOS","14816.131.0","https://app.prolific.com/","en-US,en;q=0.9","5b7f12c28e39df00016ad638","678b1bdf6d0aefd65c71dcd2","678eae6847a1c85b11bc678c","","null","<img     src='G_1.jpg' height='90'> <img     src='G_8.jpg' height='90'> <img     src='G_5.jpg' height='90'> <img      src='G_2.jpg' height='90'> <img   src='G_3.jpg' height='90'> <img id='selected'      src='G_6.jpg' height='90'> <img id='selected' src='G_4.jpg' height='90'> <img src='G_7.jpg' height='90'>","null","Animation1",""
"","","","","","html-keyboard-response","108","198999","0.0-97.0","14","1","2025-01-20 20:13:58","8e5ef0ea70509e21e61f535100ed03ac","76.141.38.119","Mozilla/5.0 (X11; CrOS x86_64 14816.131.0) AppleWebKit/537.36 (KHTML, like Gecko) Chrome/103.0.0.0 Safari/537.36","WebKit","Chrome","103.0.0.0","ChromeOS","14816.131.0","https://app.prolific.com/","en-US,en;q=0.9","5b7f12c28e39df00016ad638","678b1bdf6d0aefd65c71dcd2","678eae6847a1c85b11bc678c","","null","<img     src='G_1.jpg' height='90'> <img     src='G_8.jpg' height='90'> <img     src='G_5.jpg' height='90'> <img      src='G_2.jpg' height='90'> <img   src='G_3.jpg' height='90'> <img id='selected'      src='G_6.jpg' height='90'> <img id='selected' src='G_4.jpg' height='90'> <img src='G_7.jpg' height='90'>","null","Animation1",""
"","","","","","html-keyboard-response","109","199317","0.0-98.0","14","1","2025-01-20 20:13:58","8e5ef0ea70509e21e61f535100ed03ac","76.141.38.119","Mozilla/5.0 (X11; CrOS x86_64 14816.131.0) AppleWebKit/537.36 (KHTML, like Gecko) Chrome/103.0.0.0 Safari/537.36","WebKit","Chrome","103.0.0.0","ChromeOS","14816.131.0","https://app.prolific.com/","en-US,en;q=0.9","5b7f12c28e39df00016ad638","678b1bdf6d0aefd65c71dcd2","678eae6847a1c85b11bc678c","","null","<img     src='G_1.jpg' height='90'> <img     src='G_8.jpg' height='90'> <img     src='G_5.jpg' height='90'> <img      src='G_2.jpg' height='90'> <img   src='G_3.jpg' height='90'> <img       src='G_6.jpg' height='90'> <img  src='G_4.jpg' height='90'> <img src='G_7.jpg' height='90'>","null","Animation1",""
"","","","","","html-keyboard-response","110","199835","0.0-99.0","14","1","2025-01-20 20:13:58","8e5ef0ea70509e21e61f535100ed03ac","76.141.38.119","Mozilla/5.0 (X11; CrOS x86_64 14816.131.0) AppleWebKit/537.36 (KHTML, like Gecko) Chrome/103.0.0.0 Safari/537.36","WebKit","Chrome","103.0.0.0","ChromeOS","14816.131.0","https://app.prolific.com/","en-US,en;q=0.9","5b7f12c28e39df00016ad638","678b1bdf6d0aefd65c71dcd2","678eae6847a1c85b11bc678c","","null","<img     src='G_1.jpg' height='90'> <img     src='G_8.jpg' height='90'> <img     src='G_5.jpg' height='90'> <img      src='G_2.jpg' height='90'> <img   src='G_3.jpg' height='90'> <img       src='G_6.jpg' height='90'> <img id='selected'  src='G_4.jpg' height='90'> <img src='G_7.jpg' height='90'>","null","Animation1",""
"","","","","","html-keyboard-response","111","200355","0.0-100.0","14","1","2025-01-20 20:13:58","8e5ef0ea70509e21e61f535100ed03ac","76.141.38.119","Mozilla/5.0 (X11; CrOS x86_64 14816.131.0) AppleWebKit/537.36 (KHTML, like Gecko) Chrome/103.0.0.0 Safari/537.36","WebKit","Chrome","103.0.0.0","ChromeOS","14816.131.0","https://app.prolific.com/","en-US,en;q=0.9","5b7f12c28e39df00016ad638","678b1bdf6d0aefd65c71dcd2","678eae6847a1c85b11bc678c","","null","<img     src='G_1.jpg' height='90'> <img     src='G_8.jpg' height='90'> <img     src='G_5.jpg' height='90'> <img      src='G_2.jpg' height='90'> <img   src='G_3.jpg' height='90'> <img       src='G_6.jpg' height='90'> <img id='selected'  src='G_4.jpg' height='90'> <img id='selected' src='G_7.jpg' height='90'>","null","Animation1",""
"","","","","","html-keyboard-response","112","200876","0.0-101.0","14","1","2025-01-20 20:13:58","8e5ef0ea70509e21e61f535100ed03ac","76.141.38.119","Mozilla/5.0 (X11; CrOS x86_64 14816.131.0) AppleWebKit/537.36 (KHTML, like Gecko) Chrome/103.0.0.0 Safari/537.36","WebKit","Chrome","103.0.0.0","ChromeOS","14816.131.0","https://app.prolific.com/","en-US,en;q=0.9","5b7f12c28e39df00016ad638","678b1bdf6d0aefd65c71dcd2","678eae6847a1c85b11bc678c","","null","<img     src='G_1.jpg' height='90'> <img     src='G_8.jpg' height='90'> <img     src='G_5.jpg' height='90'> <img      src='G_2.jpg' height='90'> <img   src='G_3.jpg' height='90'> <img       src='G_6.jpg' height='90'> <img id='swapped' src='G_7.jpg' height='90'> <img id='swapped'  src='G_4.jpg' height='90'>","null","Animation1",""
"","","","","","html-keyboard-response","113","201194","0.0-102.0","14","1","2025-01-20 20:13:58","8e5ef0ea70509e21e61f535100ed03ac","76.141.38.119","Mozilla/5.0 (X11; CrOS x86_64 14816.131.0) AppleWebKit/537.36 (KHTML, like Gecko) Chrome/103.0.0.0 Safari/537.36","WebKit","Chrome","103.0.0.0","ChromeOS","14816.131.0","https://app.prolific.com/","en-US,en;q=0.9","5b7f12c28e39df00016ad638","678b1bdf6d0aefd65c71dcd2","678eae6847a1c85b11bc678c","","null","<img     src='G_1.jpg' height='90'> <img     src='G_8.jpg' height='90'> <img     src='G_5.jpg' height='90'> <img      src='G_2.jpg' height='90'> <img   src='G_3.jpg' height='90'> <img       src='G_6.jpg' height='90'> <img  src='G_7.jpg' height='90'> <img   src='G_4.jpg' height='90'>","null","Animation1",""
"","","","","","html-keyboard-response","114","201715","0.0-103.0","14","1","2025-01-20 20:13:58","8e5ef0ea70509e21e61f535100ed03ac","76.141.38.119","Mozilla/5.0 (X11; CrOS x86_64 14816.131.0) AppleWebKit/537.36 (KHTML, like Gecko) Chrome/103.0.0.0 Safari/537.36","WebKit","Chrome","103.0.0.0","ChromeOS","14816.131.0","https://app.prolific.com/","en-US,en;q=0.9","5b7f12c28e39df00016ad638","678b1bdf6d0aefd65c71dcd2","678eae6847a1c85b11bc678c","","null","<img     src='G_1.jpg' height='90'> <img     src='G_8.jpg' height='90'> <img     src='G_5.jpg' height='90'> <img      src='G_2.jpg' height='90'> <img   src='G_3.jpg' height='90'> <img id='selected'       src='G_6.jpg' height='90'> <img  src='G_7.jpg' height='90'> <img   src='G_4.jpg' height='90'>","null","Animation1",""
"","","","","","html-keyboard-response","115","202232","0.0-104.0","14","1","2025-01-20 20:13:58","8e5ef0ea70509e21e61f535100ed03ac","76.141.38.119","Mozilla/5.0 (X11; CrOS x86_64 14816.131.0) AppleWebKit/537.36 (KHTML, like Gecko) Chrome/103.0.0.0 Safari/537.36","WebKit","Chrome","103.0.0.0","ChromeOS","14816.131.0","https://app.prolific.com/","en-US,en;q=0.9","5b7f12c28e39df00016ad638","678b1bdf6d0aefd65c71dcd2","678eae6847a1c85b11bc678c","","null","<img     src='G_1.jpg' height='90'> <img     src='G_8.jpg' height='90'> <img     src='G_5.jpg' height='90'> <img      src='G_2.jpg' height='90'> <img   src='G_3.jpg' height='90'> <img id='selected'       src='G_6.jpg' height='90'> <img id='selected'  src='G_7.jpg' height='90'> <img   src='G_4.jpg' height='90'>","null","Animation1",""
"","","","","","html-keyboard-response","116","202754","0.0-105.0","14","1","2025-01-20 20:13:58","8e5ef0ea70509e21e61f535100ed03ac","76.141.38.119","Mozilla/5.0 (X11; CrOS x86_64 14816.131.0) AppleWebKit/537.36 (KHTML, like Gecko) Chrome/103.0.0.0 Safari/537.36","WebKit","Chrome","103.0.0.0","ChromeOS","14816.131.0","https://app.prolific.com/","en-US,en;q=0.9","5b7f12c28e39df00016ad638","678b1bdf6d0aefd65c71dcd2","678eae6847a1c85b11bc678c","","null","<img     src='G_1.jpg' height='90'> <img     src='G_8.jpg' height='90'> <img     src='G_5.jpg' height='90'> <img      src='G_2.jpg' height='90'> <img   src='G_3.jpg' height='90'> <img id='selected'       src='G_6.jpg' height='90'> <img id='selected'  src='G_7.jpg' height='90'> <img   src='G_4.jpg' height='90'>","null","Animation1",""
"","","","","","html-keyboard-response","117","203072","0.0-106.0","14","1","2025-01-20 20:13:58","8e5ef0ea70509e21e61f535100ed03ac","76.141.38.119","Mozilla/5.0 (X11; CrOS x86_64 14816.131.0) AppleWebKit/537.36 (KHTML, like Gecko) Chrome/103.0.0.0 Safari/537.36","WebKit","Chrome","103.0.0.0","ChromeOS","14816.131.0","https://app.prolific.com/","en-US,en;q=0.9","5b7f12c28e39df00016ad638","678b1bdf6d0aefd65c71dcd2","678eae6847a1c85b11bc678c","","null","<img     src='G_1.jpg' height='90'> <img     src='G_8.jpg' height='90'> <img     src='G_5.jpg' height='90'> <img      src='G_2.jpg' height='90'> <img   src='G_3.jpg' height='90'> <img        src='G_6.jpg' height='90'> <img   src='G_7.jpg' height='90'> <img   src='G_4.jpg' height='90'>","null","Animation1",""
"","","","","","html-keyboard-response","118","208772","0.0-107.0","14","1","2025-01-20 20:13:58","8e5ef0ea70509e21e61f535100ed03ac","76.141.38.119","Mozilla/5.0 (X11; CrOS x86_64 14816.131.0) AppleWebKit/537.36 (KHTML, like Gecko) Chrome/103.0.0.0 Safari/537.36","WebKit","Chrome","103.0.0.0","ChromeOS","14816.131.0","https://app.prolific.com/","en-US,en;q=0.9","5b7f12c28e39df00016ad638","678b1bdf6d0aefd65c71dcd2","678eae6847a1c85b11bc678c","","5683","[""Did you notice any patterns? <br><br>Press Enter to watch that example again and follow the steps of Omgne Sort.""]","enter","",""
"","","","","","html-button-response","119","209192","0.0-108.0","14","1","2025-01-20 20:13:58","8e5ef0ea70509e21e61f535100ed03ac","76.141.38.119","Mozilla/5.0 (X11; CrOS x86_64 14816.131.0) AppleWebKit/537.36 (KHTML, like Gecko) Chrome/103.0.0.0 Safari/537.36","WebKit","Chrome","103.0.0.0","ChromeOS","14816.131.0","https://app.prolific.com/","en-US,en;q=0.9","5b7f12c28e39df00016ad638","678b1bdf6d0aefd65c71dcd2","678eae6847a1c85b11bc678c","","null","<img id='selected' src='G_2.jpg' height='90'> <img src='G_6.jpg' height='90'> <img src='G_5.jpg' height='90'> <img src='G_1.jpg' height='90'> <img src='G_8.jpg' height='90'> <img src='G_3.jpg' height='90'> <img src='G_4.jpg' height='90'> <img src='G_7.jpg' height='90'>","null","Learning example 1",""
"","","","","","html-button-response","120","209518","0.0-109.0","14","1","2025-01-20 20:13:58","8e5ef0ea70509e21e61f535100ed03ac","76.141.38.119","Mozilla/5.0 (X11; CrOS x86_64 14816.131.0) AppleWebKit/537.36 (KHTML, like Gecko) Chrome/103.0.0.0 Safari/537.36","WebKit","Chrome","103.0.0.0","ChromeOS","14816.131.0","https://app.prolific.com/","en-US,en;q=0.9","5b7f12c28e39df00016ad638","678b1bdf6d0aefd65c71dcd2","678eae6847a1c85b11bc678c","","null","<img id='selected' src='G_2.jpg' height='90'> <img id='selected' src='G_6.jpg' height='90'> <img src='G_5.jpg' height='90'> <img src='G_1.jpg' height='90'> <img src='G_8.jpg' height='90'> <img src='G_3.jpg' height='90'> <img src='G_4.jpg' height='90'> <img src='G_7.jpg' height='90'>","null","Learning example 1",""
"","","","","","html-button-response","121","209843","0.0-110.0","14","1","2025-01-20 20:13:58","8e5ef0ea70509e21e61f535100ed03ac","76.141.38.119","Mozilla/5.0 (X11; CrOS x86_64 14816.131.0) AppleWebKit/537.36 (KHTML, like Gecko) Chrome/103.0.0.0 Safari/537.36","WebKit","Chrome","103.0.0.0","ChromeOS","14816.131.0","https://app.prolific.com/","en-US,en;q=0.9","5b7f12c28e39df00016ad638","678b1bdf6d0aefd65c71dcd2","678eae6847a1c85b11bc678c","","null","<img id='selected' src='G_2.jpg' height='90'> <img id='selected' src='G_6.jpg' height='90'> <img src='G_5.jpg' height='90'> <img src='G_1.jpg' height='90'> <img src='G_8.jpg' height='90'> <img src='G_3.jpg' height='90'> <img src='G_4.jpg' height='90'> <img src='G_7.jpg' height='90'>","null","Learning example 1",""
"","","","","","html-button-response","122","212984","0.0-111.0-0.0-0.0","14","1","2025-01-20 20:13:58","8e5ef0ea70509e21e61f535100ed03ac","76.141.38.119","Mozilla/5.0 (X11; CrOS x86_64 14816.131.0) AppleWebKit/537.36 (KHTML, like Gecko) Chrome/103.0.0.0 Safari/537.36","WebKit","Chrome","103.0.0.0","ChromeOS","14816.131.0","https://app.prolific.com/","en-US,en;q=0.9","5b7f12c28e39df00016ad638","678b1bdf6d0aefd65c71dcd2","678eae6847a1c85b11bc678c","","3114","<img id='selected' src='G_2.jpg' height='90'> <img id='selected' src='G_6.jpg' height='90'> <img src='G_5.jpg' height='90'> <img src='G_1.jpg' height='90'> <img src='G_8.jpg' height='90'> <img src='G_3.jpg' height='90'> <img src='G_4.jpg' height='90'> <img src='G_7.jpg' height='90'>","0","Learning example 1",""
"","","","","","html-button-response","123","213329","0.0-111.1-0.1-0.1","14","1","2025-01-20 20:13:58","8e5ef0ea70509e21e61f535100ed03ac","76.141.38.119","Mozilla/5.0 (X11; CrOS x86_64 14816.131.0) AppleWebKit/537.36 (KHTML, like Gecko) Chrome/103.0.0.0 Safari/537.36","WebKit","Chrome","103.0.0.0","ChromeOS","14816.131.0","https://app.prolific.com/","en-US,en;q=0.9","5b7f12c28e39df00016ad638","678b1bdf6d0aefd65c71dcd2","678eae6847a1c85b11bc678c","","320","<img id='selected' src='G_2.jpg' height='90'> <img id='selected' src='G_6.jpg' height='90'> <img src='G_5.jpg' height='90'> <img src='G_1.jpg' height='90'> <img src='G_8.jpg' height='90'> <img src='G_3.jpg' height='90'> <img src='G_4.jpg' height='90'> <img src='G_7.jpg' height='90'>","1","Learning example 1",""
"","","","","","html-button-response","124","213554","0.0-112.0","14","1","2025-01-20 20:13:58","8e5ef0ea70509e21e61f535100ed03ac","76.141.38.119","Mozilla/5.0 (X11; CrOS x86_64 14816.131.0) AppleWebKit/537.36 (KHTML, like Gecko) Chrome/103.0.0.0 Safari/537.36","WebKit","Chrome","103.0.0.0","ChromeOS","14816.131.0","https://app.prolific.com/","en-US,en;q=0.9","5b7f12c28e39df00016ad638","678b1bdf6d0aefd65c71dcd2","678eae6847a1c85b11bc678c","","null","<img  src='G_2.jpg' height='90'> <img  src='G_6.jpg' height='90'> <img src='G_5.jpg' height='90'> <img src='G_1.jpg' height='90'> <img src='G_8.jpg' height='90'> <img src='G_3.jpg' height='90'> <img src='G_4.jpg' height='90'> <img src='G_7.jpg' height='90'>","null","Learning example 1",""
"","","","","","html-button-response","125","213974","0.0-113.0","14","1","2025-01-20 20:13:58","8e5ef0ea70509e21e61f535100ed03ac","76.141.38.119","Mozilla/5.0 (X11; CrOS x86_64 14816.131.0) AppleWebKit/537.36 (KHTML, like Gecko) Chrome/103.0.0.0 Safari/537.36","WebKit","Chrome","103.0.0.0","ChromeOS","14816.131.0","https://app.prolific.com/","en-US,en;q=0.9","5b7f12c28e39df00016ad638","678b1bdf6d0aefd65c71dcd2","678eae6847a1c85b11bc678c","","null","<img  src='G_2.jpg' height='90'> <img id='selected'  src='G_6.jpg' height='90'> <img src='G_5.jpg' height='90'> <img src='G_1.jpg' height='90'> <img src='G_8.jpg' height='90'> <img src='G_3.jpg' height='90'> <img src='G_4.jpg' height='90'> <img src='G_7.jpg' height='90'>","null","Learning example 1",""
"","","","","","html-button-response","126","214295","0.0-114.0","14","1","2025-01-20 20:13:58","8e5ef0ea70509e21e61f535100ed03ac","76.141.38.119","Mozilla/5.0 (X11; CrOS x86_64 14816.131.0) AppleWebKit/537.36 (KHTML, like Gecko) Chrome/103.0.0.0 Safari/537.36","WebKit","Chrome","103.0.0.0","ChromeOS","14816.131.0","https://app.prolific.com/","en-US,en;q=0.9","5b7f12c28e39df00016ad638","678b1bdf6d0aefd65c71dcd2","678eae6847a1c85b11bc678c","","null","<img  src='G_2.jpg' height='90'> <img id='selected'  src='G_6.jpg' height='90'> <img id='selected' src='G_5.jpg' height='90'> <img src='G_1.jpg' height='90'> <img src='G_8.jpg' height='90'> <img src='G_3.jpg' height='90'> <img src='G_4.jpg' height='90'> <img src='G_7.jpg' height='90'>","null","Learning example 1",""
"","","","","","html-button-response","127","214621","0.0-115.0","14","1","2025-01-20 20:13:58","8e5ef0ea70509e21e61f535100ed03ac","76.141.38.119","Mozilla/5.0 (X11; CrOS x86_64 14816.131.0) AppleWebKit/537.36 (KHTML, like Gecko) Chrome/103.0.0.0 Safari/537.36","WebKit","Chrome","103.0.0.0","ChromeOS","14816.131.0","https://app.prolific.com/","en-US,en;q=0.9","5b7f12c28e39df00016ad638","678b1bdf6d0aefd65c71dcd2","678eae6847a1c85b11bc678c","","null","<img  src='G_2.jpg' height='90'> <img id='swapped' src='G_5.jpg' height='90'> <img id='swapped'  src='G_6.jpg' height='90'> <img src='G_1.jpg' height='90'> <img src='G_8.jpg' height='90'> <img src='G_3.jpg' height='90'> <img src='G_4.jpg' height='90'> <img src='G_7.jpg' height='90'>","null","Learning example 1",""
"","","","","","html-button-response","128","215324","0.0-116.0-0.0-0.0","14","1","2025-01-20 20:13:58","8e5ef0ea70509e21e61f535100ed03ac","76.141.38.119","Mozilla/5.0 (X11; CrOS x86_64 14816.131.0) AppleWebKit/537.36 (KHTML, like Gecko) Chrome/103.0.0.0 Safari/537.36","WebKit","Chrome","103.0.0.0","ChromeOS","14816.131.0","https://app.prolific.com/","en-US,en;q=0.9","5b7f12c28e39df00016ad638","678b1bdf6d0aefd65c71dcd2","678eae6847a1c85b11bc678c","","679","<img  src='G_2.jpg' height='90'> <img id='swapped' src='G_5.jpg' height='90'> <img id='swapped'  src='G_6.jpg' height='90'> <img src='G_1.jpg' height='90'> <img src='G_8.jpg' height='90'> <img src='G_3.jpg' height='90'> <img src='G_4.jpg' height='90'> <img src='G_7.jpg' height='90'>","1","Learning example 1",""
"","","","","","html-button-response","129","215679","0.0-116.1-0.1-0.1","14","1","2025-01-20 20:13:58","8e5ef0ea70509e21e61f535100ed03ac","76.141.38.119","Mozilla/5.0 (X11; CrOS x86_64 14816.131.0) AppleWebKit/537.36 (KHTML, like Gecko) Chrome/103.0.0.0 Safari/537.36","WebKit","Chrome","103.0.0.0","ChromeOS","14816.131.0","https://app.prolific.com/","en-US,en;q=0.9","5b7f12c28e39df00016ad638","678b1bdf6d0aefd65c71dcd2","678eae6847a1c85b11bc678c","","333","<img  src='G_2.jpg' height='90'> <img id='swapped' src='G_5.jpg' height='90'> <img id='swapped'  src='G_6.jpg' height='90'> <img src='G_1.jpg' height='90'> <img src='G_8.jpg' height='90'> <img src='G_3.jpg' height='90'> <img src='G_4.jpg' height='90'> <img src='G_7.jpg' height='90'>","2","Learning example 1",""
"","","","","","html-button-response","130","215898","0.0-117.0","14","1","2025-01-20 20:13:58","8e5ef0ea70509e21e61f535100ed03ac","76.141.38.119","Mozilla/5.0 (X11; CrOS x86_64 14816.131.0) AppleWebKit/537.36 (KHTML, like Gecko) Chrome/103.0.0.0 Safari/537.36","WebKit","Chrome","103.0.0.0","ChromeOS","14816.131.0","https://app.prolific.com/","en-US,en;q=0.9","5b7f12c28e39df00016ad638","678b1bdf6d0aefd65c71dcd2","678eae6847a1c85b11bc678c","","null","<img  src='G_2.jpg' height='90'> <img  src='G_5.jpg' height='90'> <img   src='G_6.jpg' height='90'> <img src='G_1.jpg' height='90'> <img src='G_8.jpg' height='90'> <img src='G_3.jpg' height='90'> <img src='G_4.jpg' height='90'> <img src='G_7.jpg' height='90'>","null","Learning example 1",""
"","","","","","html-button-response","131","216324","0.0-118.0","14","1","2025-01-20 20:13:58","8e5ef0ea70509e21e61f535100ed03ac","76.141.38.119","Mozilla/5.0 (X11; CrOS x86_64 14816.131.0) AppleWebKit/537.36 (KHTML, like Gecko) Chrome/103.0.0.0 Safari/537.36","WebKit","Chrome","103.0.0.0","ChromeOS","14816.131.0","https://app.prolific.com/","en-US,en;q=0.9","5b7f12c28e39df00016ad638","678b1bdf6d0aefd65c71dcd2","678eae6847a1c85b11bc678c","","null","<img id='selected'  src='G_2.jpg' height='90'> <img  src='G_5.jpg' height='90'> <img   src='G_6.jpg' height='90'> <img src='G_1.jpg' height='90'> <img src='G_8.jpg' height='90'> <img src='G_3.jpg' height='90'> <img src='G_4.jpg' height='90'> <img src='G_7.jpg' height='90'>","null","Learning example 1",""
"","","","","","html-button-response","132","216646","0.0-119.0","14","1","2025-01-20 20:13:58","8e5ef0ea70509e21e61f535100ed03ac","76.141.38.119","Mozilla/5.0 (X11; CrOS x86_64 14816.131.0) AppleWebKit/537.36 (KHTML, like Gecko) Chrome/103.0.0.0 Safari/537.36","WebKit","Chrome","103.0.0.0","ChromeOS","14816.131.0","https://app.prolific.com/","en-US,en;q=0.9","5b7f12c28e39df00016ad638","678b1bdf6d0aefd65c71dcd2","678eae6847a1c85b11bc678c","","null","<img id='selected'  src='G_2.jpg' height='90'> <img id='selected'  src='G_5.jpg' height='90'> <img   src='G_6.jpg' height='90'> <img src='G_1.jpg' height='90'> <img src='G_8.jpg' height='90'> <img src='G_3.jpg' height='90'> <img src='G_4.jpg' height='90'> <img src='G_7.jpg' height='90'>","null","Learning example 1",""
"","","","","","html-button-response","133","216975","0.0-120.0","14","1","2025-01-20 20:13:58","8e5ef0ea70509e21e61f535100ed03ac","76.141.38.119","Mozilla/5.0 (X11; CrOS x86_64 14816.131.0) AppleWebKit/537.36 (KHTML, like Gecko) Chrome/103.0.0.0 Safari/537.36","WebKit","Chrome","103.0.0.0","ChromeOS","14816.131.0","https://app.prolific.com/","en-US,en;q=0.9","5b7f12c28e39df00016ad638","678b1bdf6d0aefd65c71dcd2","678eae6847a1c85b11bc678c","","null","<img id='swapped'  src='G_5.jpg' height='90'> <img id='swapped'  src='G_2.jpg' height='90'> <img   src='G_6.jpg' height='90'> <img src='G_1.jpg' height='90'> <img src='G_8.jpg' height='90'> <img src='G_3.jpg' height='90'> <img src='G_4.jpg' height='90'> <img src='G_7.jpg' height='90'>","null","Learning example 1",""
"","","","","","html-button-response","134","217402","0.0-121.0-0.0-0.0","14","1","2025-01-20 20:13:58","8e5ef0ea70509e21e61f535100ed03ac","76.141.38.119","Mozilla/5.0 (X11; CrOS x86_64 14816.131.0) AppleWebKit/537.36 (KHTML, like Gecko) Chrome/103.0.0.0 Safari/537.36","WebKit","Chrome","103.0.0.0","ChromeOS","14816.131.0","https://app.prolific.com/","en-US,en;q=0.9","5b7f12c28e39df00016ad638","678b1bdf6d0aefd65c71dcd2","678eae6847a1c85b11bc678c","","405","<img id='swapped'  src='G_5.jpg' height='90'> <img id='swapped'  src='G_2.jpg' height='90'> <img   src='G_6.jpg' height='90'> <img src='G_1.jpg' height='90'> <img src='G_8.jpg' height='90'> <img src='G_3.jpg' height='90'> <img src='G_4.jpg' height='90'> <img src='G_7.jpg' height='90'>","0","Learning example 1",""
"","","","","","html-button-response","135","217776","0.0-121.1-0.1-0.1","14","1","2025-01-20 20:13:58","8e5ef0ea70509e21e61f535100ed03ac","76.141.38.119","Mozilla/5.0 (X11; CrOS x86_64 14816.131.0) AppleWebKit/537.36 (KHTML, like Gecko) Chrome/103.0.0.0 Safari/537.36","WebKit","Chrome","103.0.0.0","ChromeOS","14816.131.0","https://app.prolific.com/","en-US,en;q=0.9","5b7f12c28e39df00016ad638","678b1bdf6d0aefd65c71dcd2","678eae6847a1c85b11bc678c","","351","<img id='swapped'  src='G_5.jpg' height='90'> <img id='swapped'  src='G_2.jpg' height='90'> <img   src='G_6.jpg' height='90'> <img src='G_1.jpg' height='90'> <img src='G_8.jpg' height='90'> <img src='G_3.jpg' height='90'> <img src='G_4.jpg' height='90'> <img src='G_7.jpg' height='90'>","1","Learning example 1",""
"","","","","","html-button-response","136","218024","0.0-122.0","14","1","2025-01-20 20:13:58","8e5ef0ea70509e21e61f535100ed03ac","76.141.38.119","Mozilla/5.0 (X11; CrOS x86_64 14816.131.0) AppleWebKit/537.36 (KHTML, like Gecko) Chrome/103.0.0.0 Safari/537.36","WebKit","Chrome","103.0.0.0","ChromeOS","14816.131.0","https://app.prolific.com/","en-US,en;q=0.9","5b7f12c28e39df00016ad638","678b1bdf6d0aefd65c71dcd2","678eae6847a1c85b11bc678c","","null","<img   src='G_5.jpg' height='90'> <img   src='G_2.jpg' height='90'> <img   src='G_6.jpg' height='90'> <img src='G_1.jpg' height='90'> <img src='G_8.jpg' height='90'> <img src='G_3.jpg' height='90'> <img src='G_4.jpg' height='90'> <img src='G_7.jpg' height='90'>","null","Learning example 1",""
"","","","","","html-button-response","137","218444","0.0-123.0","14","1","2025-01-20 20:13:58","8e5ef0ea70509e21e61f535100ed03ac","76.141.38.119","Mozilla/5.0 (X11; CrOS x86_64 14816.131.0) AppleWebKit/537.36 (KHTML, like Gecko) Chrome/103.0.0.0 Safari/537.36","WebKit","Chrome","103.0.0.0","ChromeOS","14816.131.0","https://app.prolific.com/","en-US,en;q=0.9","5b7f12c28e39df00016ad638","678b1bdf6d0aefd65c71dcd2","678eae6847a1c85b11bc678c","","null","<img   src='G_5.jpg' height='90'> <img   src='G_2.jpg' height='90'> <img id='selected'   src='G_6.jpg' height='90'> <img src='G_1.jpg' height='90'> <img src='G_8.jpg' height='90'> <img src='G_3.jpg' height='90'> <img src='G_4.jpg' height='90'> <img src='G_7.jpg' height='90'>","null","Learning example 1",""
"","","","","","html-button-response","138","218766","0.0-124.0","14","1","2025-01-20 20:13:58","8e5ef0ea70509e21e61f535100ed03ac","76.141.38.119","Mozilla/5.0 (X11; CrOS x86_64 14816.131.0) AppleWebKit/537.36 (KHTML, like Gecko) Chrome/103.0.0.0 Safari/537.36","WebKit","Chrome","103.0.0.0","ChromeOS","14816.131.0","https://app.prolific.com/","en-US,en;q=0.9","5b7f12c28e39df00016ad638","678b1bdf6d0aefd65c71dcd2","678eae6847a1c85b11bc678c","","null","<img   src='G_5.jpg' height='90'> <img   src='G_2.jpg' height='90'> <img id='selected'   src='G_6.jpg' height='90'> <img id='selected' src='G_1.jpg' height='90'> <img src='G_8.jpg' height='90'> <img src='G_3.jpg' height='90'> <img src='G_4.jpg' height='90'> <img src='G_7.jpg' height='90'>","null","Learning example 1",""
"","","","","","html-button-response","139","219084","0.0-125.0","14","1","2025-01-20 20:13:58","8e5ef0ea70509e21e61f535100ed03ac","76.141.38.119","Mozilla/5.0 (X11; CrOS x86_64 14816.131.0) AppleWebKit/537.36 (KHTML, like Gecko) Chrome/103.0.0.0 Safari/537.36","WebKit","Chrome","103.0.0.0","ChromeOS","14816.131.0","https://app.prolific.com/","en-US,en;q=0.9","5b7f12c28e39df00016ad638","678b1bdf6d0aefd65c71dcd2","678eae6847a1c85b11bc678c","","null","<img   src='G_5.jpg' height='90'> <img   src='G_2.jpg' height='90'> <img id='swapped' src='G_1.jpg' height='90'> <img id='swapped'   src='G_6.jpg' height='90'> <img src='G_8.jpg' height='90'> <img src='G_3.jpg' height='90'> <img src='G_4.jpg' height='90'> <img src='G_7.jpg' height='90'>","null","Learning example 1",""
