"success","timeout","failed_images","failed_audio","failed_video","trial_type","trial_index","time_elapsed","internal_node_id","run_id","condition","recorded_at","source_code_version","ip","user_agent","device","browser","browser_version","platform","platform_version","referer","accept_language","PROLIFIC_PID","STUDY_ID","SESSION_ID","view_history","rt","stimulus","response","phase","question_order"
"true","false","[]","[]","[]","preload","0","6908","0.0-0.0","18","1","2025-01-20 21:02:09","8e5ef0ea70509e21e61f535100ed03ac","23.151.72.4","Mozilla/5.0 (Windows NT 10.0; Win64; x64) AppleWebKit/537.36 (KHTML, like Gecko) Chrome/130.0.0.0 Safari/537.36","WebKit","Chrome","130.0.0.0","Windows","10.0","https://app.prolific.com/","en-US,en;q=0.9","674dd6189cf2ef78c505c963","678b1bdf6d0aefd65c71dcd2","678eb986d948f5180abedc44","","","","","",""
"","","","","","instructions","1","57682","0.0-1.0","18","1","2025-01-20 21:02:09","8e5ef0ea70509e21e61f535100ed03ac","23.151.72.4","Mozilla/5.0 (Windows NT 10.0; Win64; x64) AppleWebKit/537.36 (KHTML, like Gecko) Chrome/130.0.0.0 Safari/537.36","WebKit","Chrome","130.0.0.0","Windows","10.0","https://app.prolific.com/","en-US,en;q=0.9","674dd6189cf2ef78c505c963","678b1bdf6d0aefd65c71dcd2","678eb986d948f5180abedc44","[{""page_index"":0,""viewing_time"":50767}]","50768","","","",""
"","","","","","html-keyboard-response","2","58196","0.0-2.0","18","1","2025-01-20 21:02:09","8e5ef0ea70509e21e61f535100ed03ac","23.151.72.4","Mozilla/5.0 (Windows NT 10.0; Win64; x64) AppleWebKit/537.36 (KHTML, like Gecko) Chrome/130.0.0.0 Safari/537.36","WebKit","Chrome","130.0.0.0","Windows","10.0","https://app.prolific.com/","en-US,en;q=0.9","674dd6189cf2ef78c505c963","678b1bdf6d0aefd65c71dcd2","678eb986d948f5180abedc44","","null","<p> + <p/>","null","",""
"","","","","","instructions","3","118770","0.0-3.0","18","1","2025-01-20 21:02:09","8e5ef0ea70509e21e61f535100ed03ac","23.151.72.4","Mozilla/5.0 (Windows NT 10.0; Win64; x64) AppleWebKit/537.36 (KHTML, like Gecko) Chrome/130.0.0.0 Safari/537.36","WebKit","Chrome","130.0.0.0","Windows","10.0","https://app.prolific.com/","en-US,en;q=0.9","674dd6189cf2ef78c505c963","678b1bdf6d0aefd65c71dcd2","678eb986d948f5180abedc44","[{""page_index"":0,""viewing_time"":2611},{""page_index"":1,""viewing_time"":24793},{""page_index"":2,""viewing_time"":14907},{""page_index"":3,""viewing_time"":8791},{""page_index"":4,""viewing_time"":9469}]","60571","","","",""
"","","","","","html-button-response","4","140418","0.0-4.0-0.0-0.0","18","1","2025-01-20 21:02:09","8e5ef0ea70509e21e61f535100ed03ac","23.151.72.4","Mozilla/5.0 (Windows NT 10.0; Win64; x64) AppleWebKit/537.36 (KHTML, like Gecko) Chrome/130.0.0.0 Safari/537.36","WebKit","Chrome","130.0.0.0","Windows","10.0","https://app.prolific.com/","en-US,en;q=0.9","674dd6189cf2ef78c505c963","678b1bdf6d0aefd65c71dcd2","678eb986d948f5180abedc44","","21638","","3","",""
"","","","","","html-button-response","5","145093","0.0-4.1-0.1-0.1","18","1","2025-01-20 21:02:09","8e5ef0ea70509e21e61f535100ed03ac","23.151.72.4","Mozilla/5.0 (Windows NT 10.0; Win64; x64) AppleWebKit/537.36 (KHTML, like Gecko) Chrome/130.0.0.0 Safari/537.36","WebKit","Chrome","130.0.0.0","Windows","10.0","https://app.prolific.com/","en-US,en;q=0.9","674dd6189cf2ef78c505c963","678b1bdf6d0aefd65c71dcd2","678eb986d948f5180abedc44","","4669","","1","",""
"","","","","","html-button-response","6","146334","0.0-4.2-0.2-0.2","18","1","2025-01-20 21:02:09","8e5ef0ea70509e21e61f535100ed03ac","23.151.72.4","Mozilla/5.0 (Windows NT 10.0; Win64; x64) AppleWebKit/537.36 (KHTML, like Gecko) Chrome/130.0.0.0 Safari/537.36","WebKit","Chrome","130.0.0.0","Windows","10.0","https://app.prolific.com/","en-US,en;q=0.9","674dd6189cf2ef78c505c963","678b1bdf6d0aefd65c71dcd2","678eb986d948f5180abedc44","","1233","","1","",""
"","","","","","html-button-response","7","148103","0.0-4.3-0.3-0.3","18","1","2025-01-20 21:02:09","8e5ef0ea70509e21e61f535100ed03ac","23.151.72.4","Mozilla/5.0 (Windows NT 10.0; Win64; x64) AppleWebKit/537.36 (KHTML, like Gecko) Chrome/130.0.0.0 Safari/537.36","WebKit","Chrome","130.0.0.0","Windows","10.0","https://app.prolific.com/","en-US,en;q=0.9","674dd6189cf2ef78c505c963","678b1bdf6d0aefd65c71dcd2","678eb986d948f5180abedc44","","1763","","3","",""
"","","","","","html-button-response","8","153250","0.0-4.4-0.4-0.4","18","1","2025-01-20 21:02:09","8e5ef0ea70509e21e61f535100ed03ac","23.151.72.4","Mozilla/5.0 (Windows NT 10.0; Win64; x64) AppleWebKit/537.36 (KHTML, like Gecko) Chrome/130.0.0.0 Safari/537.36","WebKit","Chrome","130.0.0.0","Windows","10.0","https://app.prolific.com/","en-US,en;q=0.9","674dd6189cf2ef78c505c963","678b1bdf6d0aefd65c71dcd2","678eb986d948f5180abedc44","","5140","","3","",""
"","","","","","html-button-response","9","154990","0.0-4.5-0.5-0.5","18","1","2025-01-20 21:02:09","8e5ef0ea70509e21e61f535100ed03ac","23.151.72.4","Mozilla/5.0 (Windows NT 10.0; Win64; x64) AppleWebKit/537.36 (KHTML, like Gecko) Chrome/130.0.0.0 Safari/537.36","WebKit","Chrome","130.0.0.0","Windows","10.0","https://app.prolific.com/","en-US,en;q=0.9","674dd6189cf2ef78c505c963","678b1bdf6d0aefd65c71dcd2","678eb986d948f5180abedc44","","1734","","1","",""
"","","","","","html-button-response","10","166147","0.0-4.6-0.6-0.6","18","1","2025-01-20 21:02:09","8e5ef0ea70509e21e61f535100ed03ac","23.151.72.4","Mozilla/5.0 (Windows NT 10.0; Win64; x64) AppleWebKit/537.36 (KHTML, like Gecko) Chrome/130.0.0.0 Safari/537.36","WebKit","Chrome","130.0.0.0","Windows","10.0","https://app.prolific.com/","en-US,en;q=0.9","674dd6189cf2ef78c505c963","678b1bdf6d0aefd65c71dcd2","678eb986d948f5180abedc44","","11149","","3","",""
"","","","","","html-button-response","11","166664","0.0-4.7-0.7-0.7","18","1","2025-01-20 21:02:09","8e5ef0ea70509e21e61f535100ed03ac","23.151.72.4","Mozilla/5.0 (Windows NT 10.0; Win64; x64) AppleWebKit/537.36 (KHTML, like Gecko) Chrome/130.0.0.0 Safari/537.36","WebKit","Chrome","130.0.0.0","Windows","10.0","https://app.prolific.com/","en-US,en;q=0.9","674dd6189cf2ef78c505c963","678b1bdf6d0aefd65c71dcd2","678eb986d948f5180abedc44","","509","","3","",""
"","","","","","html-button-response","12","166764","0.0-4.8-0.8-0.8","18","1","2025-01-20 21:02:09","8e5ef0ea70509e21e61f535100ed03ac","23.151.72.4","Mozilla/5.0 (Windows NT 10.0; Win64; x64) AppleWebKit/537.36 (KHTML, like Gecko) Chrome/130.0.0.0 Safari/537.36","WebKit","Chrome","130.0.0.0","Windows","10.0","https://app.prolific.com/","en-US,en;q=0.9","674dd6189cf2ef78c505c963","678b1bdf6d0aefd65c71dcd2","678eb986d948f5180abedc44","","92","","3","",""
"","","","","","html-button-response","13","168057","0.0-4.9-0.9-0.9","18","1","2025-01-20 21:02:09","8e5ef0ea70509e21e61f535100ed03ac","23.151.72.4","Mozilla/5.0 (Windows NT 10.0; Win64; x64) AppleWebKit/537.36 (KHTML, like Gecko) Chrome/130.0.0.0 Safari/537.36","WebKit","Chrome","130.0.0.0","Windows","10.0","https://app.prolific.com/","en-US,en;q=0.9","674dd6189cf2ef78c505c963","678b1bdf6d0aefd65c71dcd2","678eb986d948f5180abedc44","","1287","","1","",""
"","","","","","html-button-response","14","170159","0.0-4.10-0.10-0.10","18","1","2025-01-20 21:02:09","8e5ef0ea70509e21e61f535100ed03ac","23.151.72.4","Mozilla/5.0 (Windows NT 10.0; Win64; x64) AppleWebKit/537.36 (KHTML, like Gecko) Chrome/130.0.0.0 Safari/537.36","WebKit","Chrome","130.0.0.0","Windows","10.0","https://app.prolific.com/","en-US,en;q=0.9","674dd6189cf2ef78c505c963","678b1bdf6d0aefd65c71dcd2","678eb986d948f5180abedc44","","2094","","4","",""
"","","","","","html-button-response","15","171647","0.0-4.11-0.11-0.11","18","1","2025-01-20 21:02:09","8e5ef0ea70509e21e61f535100ed03ac","23.151.72.4","Mozilla/5.0 (Windows NT 10.0; Win64; x64) AppleWebKit/537.36 (KHTML, like Gecko) Chrome/130.0.0.0 Safari/537.36","WebKit","Chrome","130.0.0.0","Windows","10.0","https://app.prolific.com/","en-US,en;q=0.9","674dd6189cf2ef78c505c963","678b1bdf6d0aefd65c71dcd2","678eb986d948f5180abedc44","","1479","","2","",""
"","","","","","html-button-response","16","176564","0.0-4.12-0.12-0.12","18","1","2025-01-20 21:02:09","8e5ef0ea70509e21e61f535100ed03ac","23.151.72.4","Mozilla/5.0 (Windows NT 10.0; Win64; x64) AppleWebKit/537.36 (KHTML, like Gecko) Chrome/130.0.0.0 Safari/537.36","WebKit","Chrome","130.0.0.0","Windows","10.0","https://app.prolific.com/","en-US,en;q=0.9","674dd6189cf2ef78c505c963","678b1bdf6d0aefd65c71dcd2","678eb986d948f5180abedc44","","4912","","3","",""
"","","","","","html-button-response","17","178159","0.0-4.13-0.13-0.13","18","1","2025-01-20 21:02:09","8e5ef0ea70509e21e61f535100ed03ac","23.151.72.4","Mozilla/5.0 (Windows NT 10.0; Win64; x64) AppleWebKit/537.36 (KHTML, like Gecko) Chrome/130.0.0.0 Safari/537.36","WebKit","Chrome","130.0.0.0","Windows","10.0","https://app.prolific.com/","en-US,en;q=0.9","674dd6189cf2ef78c505c963","678b1bdf6d0aefd65c71dcd2","678eb986d948f5180abedc44","","1589","","1","",""
"","","","","","html-button-response","18","178949","0.0-4.14-0.14-0.14","18","1","2025-01-20 21:02:09","8e5ef0ea70509e21e61f535100ed03ac","23.151.72.4","Mozilla/5.0 (Windows NT 10.0; Win64; x64) AppleWebKit/537.36 (KHTML, like Gecko) Chrome/130.0.0.0 Safari/537.36","WebKit","Chrome","130.0.0.0","Windows","10.0","https://app.prolific.com/","en-US,en;q=0.9","674dd6189cf2ef78c505c963","678b1bdf6d0aefd65c71dcd2","678eb986d948f5180abedc44","","782","","1","",""
"","","","","","html-button-response","19","180445","0.0-4.15-0.15-0.15","18","1","2025-01-20 21:02:09","8e5ef0ea70509e21e61f535100ed03ac","23.151.72.4","Mozilla/5.0 (Windows NT 10.0; Win64; x64) AppleWebKit/537.36 (KHTML, like Gecko) Chrome/130.0.0.0 Safari/537.36","WebKit","Chrome","130.0.0.0","Windows","10.0","https://app.prolific.com/","en-US,en;q=0.9","674dd6189cf2ef78c505c963","678b1bdf6d0aefd65c71dcd2","678eb986d948f5180abedc44","","1490","","3","",""
"","","","","","html-button-response","20","181894","0.0-4.16-0.16-0.16","18","1","2025-01-20 21:02:09","8e5ef0ea70509e21e61f535100ed03ac","23.151.72.4","Mozilla/5.0 (Windows NT 10.0; Win64; x64) AppleWebKit/537.36 (KHTML, like Gecko) Chrome/130.0.0.0 Safari/537.36","WebKit","Chrome","130.0.0.0","Windows","10.0","https://app.prolific.com/","en-US,en;q=0.9","674dd6189cf2ef78c505c963","678b1bdf6d0aefd65c71dcd2","678eb986d948f5180abedc44","","1443","","0","",""
"","","","","","html-button-response","21","183409","0.0-4.17-0.17-0.17","18","1","2025-01-20 21:02:09","8e5ef0ea70509e21e61f535100ed03ac","23.151.72.4","Mozilla/5.0 (Windows NT 10.0; Win64; x64) AppleWebKit/537.36 (KHTML, like Gecko) Chrome/130.0.0.0 Safari/537.36","WebKit","Chrome","130.0.0.0","Windows","10.0","https://app.prolific.com/","en-US,en;q=0.9","674dd6189cf2ef78c505c963","678b1bdf6d0aefd65c71dcd2","678eb986d948f5180abedc44","","1508","","3","",""
"","","","","","html-button-response","22","191574","0.0-4.18-0.18-0.18","18","1","2025-01-20 21:02:09","8e5ef0ea70509e21e61f535100ed03ac","23.151.72.4","Mozilla/5.0 (Windows NT 10.0; Win64; x64) AppleWebKit/537.36 (KHTML, like Gecko) Chrome/130.0.0.0 Safari/537.36","WebKit","Chrome","130.0.0.0","Windows","10.0","https://app.prolific.com/","en-US,en;q=0.9","674dd6189cf2ef78c505c963","678b1bdf6d0aefd65c71dcd2","678eb986d948f5180abedc44","","8157","","3","",""
"","","","","","html-button-response","23","192526","0.0-4.19-0.19-0.19","18","1","2025-01-20 21:02:09","8e5ef0ea70509e21e61f535100ed03ac","23.151.72.4","Mozilla/5.0 (Windows NT 10.0; Win64; x64) AppleWebKit/537.36 (KHTML, like Gecko) Chrome/130.0.0.0 Safari/537.36","WebKit","Chrome","130.0.0.0","Windows","10.0","https://app.prolific.com/","en-US,en;q=0.9","674dd6189cf2ef78c505c963","678b1bdf6d0aefd65c71dcd2","678eb986d948f5180abedc44","","945","","2","",""
"","","","","","html-button-response","24","193588","0.0-4.20-0.20-0.20","18","1","2025-01-20 21:02:09","8e5ef0ea70509e21e61f535100ed03ac","23.151.72.4","Mozilla/5.0 (Windows NT 10.0; Win64; x64) AppleWebKit/537.36 (KHTML, like Gecko) Chrome/130.0.0.0 Safari/537.36","WebKit","Chrome","130.0.0.0","Windows","10.0","https://app.prolific.com/","en-US,en;q=0.9","674dd6189cf2ef78c505c963","678b1bdf6d0aefd65c71dcd2","678eb986d948f5180abedc44","","1054","","2","",""
"","","","","","html-button-response","25","194581","0.0-4.21-0.21-0.21","18","1","2025-01-20 21:02:09","8e5ef0ea70509e21e61f535100ed03ac","23.151.72.4","Mozilla/5.0 (Windows NT 10.0; Win64; x64) AppleWebKit/537.36 (KHTML, like Gecko) Chrome/130.0.0.0 Safari/537.36","WebKit","Chrome","130.0.0.0","Windows","10.0","https://app.prolific.com/","en-US,en;q=0.9","674dd6189cf2ef78c505c963","678b1bdf6d0aefd65c71dcd2","678eb986d948f5180abedc44","","988","","3","",""
"","","","","","html-button-response","26","208347","0.0-4.22-0.22-0.22","18","1","2025-01-20 21:02:09","8e5ef0ea70509e21e61f535100ed03ac","23.151.72.4","Mozilla/5.0 (Windows NT 10.0; Win64; x64) AppleWebKit/537.36 (KHTML, like Gecko) Chrome/130.0.0.0 Safari/537.36","WebKit","Chrome","130.0.0.0","Windows","10.0","https://app.prolific.com/","en-US,en;q=0.9","674dd6189cf2ef78c505c963","678b1bdf6d0aefd65c71dcd2","678eb986d948f5180abedc44","","13760","","0","",""
"","","","","","html-button-response","27","209084","0.0-4.23-0.23-0.23","18","1","2025-01-20 21:02:09","8e5ef0ea70509e21e61f535100ed03ac","23.151.72.4","Mozilla/5.0 (Windows NT 10.0; Win64; x64) AppleWebKit/537.36 (KHTML, like Gecko) Chrome/130.0.0.0 Safari/537.36","WebKit","Chrome","130.0.0.0","Windows","10.0","https://app.prolific.com/","en-US,en;q=0.9","674dd6189cf2ef78c505c963","678b1bdf6d0aefd65c71dcd2","678eb986d948f5180abedc44","","731","","1","",""
"","","","","","html-button-response","28","211830","0.0-4.24-0.24-0.24","18","1","2025-01-20 21:02:09","8e5ef0ea70509e21e61f535100ed03ac","23.151.72.4","Mozilla/5.0 (Windows NT 10.0; Win64; x64) AppleWebKit/537.36 (KHTML, like Gecko) Chrome/130.0.0.0 Safari/537.36","WebKit","Chrome","130.0.0.0","Windows","10.0","https://app.prolific.com/","en-US,en;q=0.9","674dd6189cf2ef78c505c963","678b1bdf6d0aefd65c71dcd2","678eb986d948f5180abedc44","","2740","","2","",""
"","","","","","html-button-response","29","212607","0.0-4.25-0.25-0.25","18","1","2025-01-20 21:02:09","8e5ef0ea70509e21e61f535100ed03ac","23.151.72.4","Mozilla/5.0 (Windows NT 10.0; Win64; x64) AppleWebKit/537.36 (KHTML, like Gecko) Chrome/130.0.0.0 Safari/537.36","WebKit","Chrome","130.0.0.0","Windows","10.0","https://app.prolific.com/","en-US,en;q=0.9","674dd6189cf2ef78c505c963","678b1bdf6d0aefd65c71dcd2","678eb986d948f5180abedc44","","771","","1","",""
"","","","","","html-button-response","30","215129","0.0-4.26-0.26-0.26","18","1","2025-01-20 21:02:09","8e5ef0ea70509e21e61f535100ed03ac","23.151.72.4","Mozilla/5.0 (Windows NT 10.0; Win64; x64) AppleWebKit/537.36 (KHTML, like Gecko) Chrome/130.0.0.0 Safari/537.36","WebKit","Chrome","130.0.0.0","Windows","10.0","https://app.prolific.com/","en-US,en;q=0.9","674dd6189cf2ef78c505c963","678b1bdf6d0aefd65c71dcd2","678eb986d948f5180abedc44","","2508","","2","",""
"","","","","","html-button-response","31","216498","0.0-4.27-0.27-0.27","18","1","2025-01-20 21:02:09","8e5ef0ea70509e21e61f535100ed03ac","23.151.72.4","Mozilla/5.0 (Windows NT 10.0; Win64; x64) AppleWebKit/537.36 (KHTML, like Gecko) Chrome/130.0.0.0 Safari/537.36","WebKit","Chrome","130.0.0.0","Windows","10.0","https://app.prolific.com/","en-US,en;q=0.9","674dd6189cf2ef78c505c963","678b1bdf6d0aefd65c71dcd2","678eb986d948f5180abedc44","","1363","","4","",""
"","","","","","html-button-response","32","217820","0.0-4.28-0.28-0.28","18","1","2025-01-20 21:02:09","8e5ef0ea70509e21e61f535100ed03ac","23.151.72.4","Mozilla/5.0 (Windows NT 10.0; Win64; x64) AppleWebKit/537.36 (KHTML, like Gecko) Chrome/130.0.0.0 Safari/537.36","WebKit","Chrome","130.0.0.0","Windows","10.0","https://app.prolific.com/","en-US,en;q=0.9","674dd6189cf2ef78c505c963","678b1bdf6d0aefd65c71dcd2","678eb986d948f5180abedc44","","1316","","3","",""
"","","","","","html-button-response","33","218620","0.0-4.29-0.29-0.29","18","1","2025-01-20 21:02:09","8e5ef0ea70509e21e61f535100ed03ac","23.151.72.4","Mozilla/5.0 (Windows NT 10.0; Win64; x64) AppleWebKit/537.36 (KHTML, like Gecko) Chrome/130.0.0.0 Safari/537.36","WebKit","Chrome","130.0.0.0","Windows","10.0","https://app.prolific.com/","en-US,en;q=0.9","674dd6189cf2ef78c505c963","678b1bdf6d0aefd65c71dcd2","678eb986d948f5180abedc44","","794","","4","",""
"","","","","","html-button-response","34","221106","0.0-4.30-0.30-0.30","18","1","2025-01-20 21:02:09","8e5ef0ea70509e21e61f535100ed03ac","23.151.72.4","Mozilla/5.0 (Windows NT 10.0; Win64; x64) AppleWebKit/537.36 (KHTML, like Gecko) Chrome/130.0.0.0 Safari/537.36","WebKit","Chrome","130.0.0.0","Windows","10.0","https://app.prolific.com/","en-US,en;q=0.9","674dd6189cf2ef78c505c963","678b1bdf6d0aefd65c71dcd2","678eb986d948f5180abedc44","","2480","","0","",""
"","","","","","html-button-response","35","222829","0.0-4.31-0.31-0.31","18","1","2025-01-20 21:02:09","8e5ef0ea70509e21e61f535100ed03ac","23.151.72.4","Mozilla/5.0 (Windows NT 10.0; Win64; x64) AppleWebKit/537.36 (KHTML, like Gecko) Chrome/130.0.0.0 Safari/537.36","WebKit","Chrome","130.0.0.0","Windows","10.0","https://app.prolific.com/","en-US,en;q=0.9","674dd6189cf2ef78c505c963","678b1bdf6d0aefd65c71dcd2","678eb986d948f5180abedc44","","1715","","2","",""
"","","","","","html-button-response","36","224020","0.0-4.32-0.32-0.32","18","1","2025-01-20 21:02:09","8e5ef0ea70509e21e61f535100ed03ac","23.151.72.4","Mozilla/5.0 (Windows NT 10.0; Win64; x64) AppleWebKit/537.36 (KHTML, like Gecko) Chrome/130.0.0.0 Safari/537.36","WebKit","Chrome","130.0.0.0","Windows","10.0","https://app.prolific.com/","en-US,en;q=0.9","674dd6189cf2ef78c505c963","678b1bdf6d0aefd65c71dcd2","678eb986d948f5180abedc44","","1185","","1","",""
"","","","","","html-button-response","37","224679","0.0-4.33-0.33-0.33","18","1","2025-01-20 21:02:09","8e5ef0ea70509e21e61f535100ed03ac","23.151.72.4","Mozilla/5.0 (Windows NT 10.0; Win64; x64) AppleWebKit/537.36 (KHTML, like Gecko) Chrome/130.0.0.0 Safari/537.36","WebKit","Chrome","130.0.0.0","Windows","10.0","https://app.prolific.com/","en-US,en;q=0.9","674dd6189cf2ef78c505c963","678b1bdf6d0aefd65c71dcd2","678eb986d948f5180abedc44","","653","","2","",""
"","","","","","html-button-response","38","225457","0.0-4.34-0.34-0.34","18","1","2025-01-20 21:02:09","8e5ef0ea70509e21e61f535100ed03ac","23.151.72.4","Mozilla/5.0 (Windows NT 10.0; Win64; x64) AppleWebKit/537.36 (KHTML, like Gecko) Chrome/130.0.0.0 Safari/537.36","WebKit","Chrome","130.0.0.0","Windows","10.0","https://app.prolific.com/","en-US,en;q=0.9","674dd6189cf2ef78c505c963","678b1bdf6d0aefd65c71dcd2","678eb986d948f5180abedc44","","771","","2","",""
"","","","","","html-button-response","39","225556","0.0-4.35-0.35-0.35","18","1","2025-01-20 21:02:09","8e5ef0ea70509e21e61f535100ed03ac","23.151.72.4","Mozilla/5.0 (Windows NT 10.0; Win64; x64) AppleWebKit/537.36 (KHTML, like Gecko) Chrome/130.0.0.0 Safari/537.36","WebKit","Chrome","130.0.0.0","Windows","10.0","https://app.prolific.com/","en-US,en;q=0.9","674dd6189cf2ef78c505c963","678b1bdf6d0aefd65c71dcd2","678eb986d948f5180abedc44","","90","","2","",""
"","","","","","html-button-response","40","226368","0.0-4.36-0.36-0.36","18","1","2025-01-20 21:02:09","8e5ef0ea70509e21e61f535100ed03ac","23.151.72.4","Mozilla/5.0 (Windows NT 10.0; Win64; x64) AppleWebKit/537.36 (KHTML, like Gecko) Chrome/130.0.0.0 Safari/537.36","WebKit","Chrome","130.0.0.0","Windows","10.0","https://app.prolific.com/","en-US,en;q=0.9","674dd6189cf2ef78c505c963","678b1bdf6d0aefd65c71dcd2","678eb986d948f5180abedc44","","803","","1","",""
"","","","","","html-button-response","41","227319","0.0-4.37-0.37-0.37","18","1","2025-01-20 21:02:09","8e5ef0ea70509e21e61f535100ed03ac","23.151.72.4","Mozilla/5.0 (Windows NT 10.0; Win64; x64) AppleWebKit/537.36 (KHTML, like Gecko) Chrome/130.0.0.0 Safari/537.36","WebKit","Chrome","130.0.0.0","Windows","10.0","https://app.prolific.com/","en-US,en;q=0.9","674dd6189cf2ef78c505c963","678b1bdf6d0aefd65c71dcd2","678eb986d948f5180abedc44","","944","","0","",""
"","","","","","html-button-response","42","229562","0.0-4.38-0.38-0.38","18","1","2025-01-20 21:02:09","8e5ef0ea70509e21e61f535100ed03ac","23.151.72.4","Mozilla/5.0 (Windows NT 10.0; Win64; x64) AppleWebKit/537.36 (KHTML, like Gecko) Chrome/130.0.0.0 Safari/537.36","WebKit","Chrome","130.0.0.0","Windows","10.0","https://app.prolific.com/","en-US,en;q=0.9","674dd6189cf2ef78c505c963","678b1bdf6d0aefd65c71dcd2","678eb986d948f5180abedc44","","2238","","1","",""
"","","","","","html-button-response","43","230563","0.0-4.39-0.39-0.39","18","1","2025-01-20 21:02:09","8e5ef0ea70509e21e61f535100ed03ac","23.151.72.4","Mozilla/5.0 (Windows NT 10.0; Win64; x64) AppleWebKit/537.36 (KHTML, like Gecko) Chrome/130.0.0.0 Safari/537.36","WebKit","Chrome","130.0.0.0","Windows","10.0","https://app.prolific.com/","en-US,en;q=0.9","674dd6189cf2ef78c505c963","678b1bdf6d0aefd65c71dcd2","678eb986d948f5180abedc44","","994","","2","",""
"","","","","","html-button-response","44","231705","0.0-4.40-0.40-0.40","18","1","2025-01-20 21:02:09","8e5ef0ea70509e21e61f535100ed03ac","23.151.72.4","Mozilla/5.0 (Windows NT 10.0; Win64; x64) AppleWebKit/537.36 (KHTML, like Gecko) Chrome/130.0.0.0 Safari/537.36","WebKit","Chrome","130.0.0.0","Windows","10.0","https://app.prolific.com/","en-US,en;q=0.9","674dd6189cf2ef78c505c963","678b1bdf6d0aefd65c71dcd2","678eb986d948f5180abedc44","","1135","","0","",""
"","","","","","html-button-response","45","232779","0.0-4.41-0.41-0.41","18","1","2025-01-20 21:02:09","8e5ef0ea70509e21e61f535100ed03ac","23.151.72.4","Mozilla/5.0 (Windows NT 10.0; Win64; x64) AppleWebKit/537.36 (KHTML, like Gecko) Chrome/130.0.0.0 Safari/537.36","WebKit","Chrome","130.0.0.0","Windows","10.0","https://app.prolific.com/","en-US,en;q=0.9","674dd6189cf2ef78c505c963","678b1bdf6d0aefd65c71dcd2","678eb986d948f5180abedc44","","1065","","2","",""
"","","","","","html-button-response","46","233547","0.0-4.42-0.42-0.42","18","1","2025-01-20 21:02:09","8e5ef0ea70509e21e61f535100ed03ac","23.151.72.4","Mozilla/5.0 (Windows NT 10.0; Win64; x64) AppleWebKit/537.36 (KHTML, like Gecko) Chrome/130.0.0.0 Safari/537.36","WebKit","Chrome","130.0.0.0","Windows","10.0","https://app.prolific.com/","en-US,en;q=0.9","674dd6189cf2ef78c505c963","678b1bdf6d0aefd65c71dcd2","678eb986d948f5180abedc44","","762","","2","",""
"","","","","","html-button-response","47","234750","0.0-4.43-0.43-0.43","18","1","2025-01-20 21:02:09","8e5ef0ea70509e21e61f535100ed03ac","23.151.72.4","Mozilla/5.0 (Windows NT 10.0; Win64; x64) AppleWebKit/537.36 (KHTML, like Gecko) Chrome/130.0.0.0 Safari/537.36","WebKit","Chrome","130.0.0.0","Windows","10.0","https://app.prolific.com/","en-US,en;q=0.9","674dd6189cf2ef78c505c963","678b1bdf6d0aefd65c71dcd2","678eb986d948f5180abedc44","","1198","","0","",""
"","","","","","html-button-response","48","236005","0.0-4.44-0.44-0.44","18","1","2025-01-20 21:02:09","8e5ef0ea70509e21e61f535100ed03ac","23.151.72.4","Mozilla/5.0 (Windows NT 10.0; Win64; x64) AppleWebKit/537.36 (KHTML, like Gecko) Chrome/130.0.0.0 Safari/537.36","WebKit","Chrome","130.0.0.0","Windows","10.0","https://app.prolific.com/","en-US,en;q=0.9","674dd6189cf2ef78c505c963","678b1bdf6d0aefd65c71dcd2","678eb986d948f5180abedc44","","1249","","1","",""
"","","","","","html-button-response","49","236916","0.0-4.45-0.45-0.45","18","1","2025-01-20 21:02:09","8e5ef0ea70509e21e61f535100ed03ac","23.151.72.4","Mozilla/5.0 (Windows NT 10.0; Win64; x64) AppleWebKit/537.36 (KHTML, like Gecko) Chrome/130.0.0.0 Safari/537.36","WebKit","Chrome","130.0.0.0","Windows","10.0","https://app.prolific.com/","en-US,en;q=0.9","674dd6189cf2ef78c505c963","678b1bdf6d0aefd65c71dcd2","678eb986d948f5180abedc44","","898","","2","",""
"","","","","","html-button-response","50","237542","0.0-4.46-0.46-0.46","18","1","2025-01-20 21:02:09","8e5ef0ea70509e21e61f535100ed03ac","23.151.72.4","Mozilla/5.0 (Windows NT 10.0; Win64; x64) AppleWebKit/537.36 (KHTML, like Gecko) Chrome/130.0.0.0 Safari/537.36","WebKit","Chrome","130.0.0.0","Windows","10.0","https://app.prolific.com/","en-US,en;q=0.9","674dd6189cf2ef78c505c963","678b1bdf6d0aefd65c71dcd2","678eb986d948f5180abedc44","","619","","2","",""
"","","","","","html-button-response","51","238493","0.0-4.47-0.47-0.47","18","1","2025-01-20 21:02:09","8e5ef0ea70509e21e61f535100ed03ac","23.151.72.4","Mozilla/5.0 (Windows NT 10.0; Win64; x64) AppleWebKit/537.36 (KHTML, like Gecko) Chrome/130.0.0.0 Safari/537.36","WebKit","Chrome","130.0.0.0","Windows","10.0","https://app.prolific.com/","en-US,en;q=0.9","674dd6189cf2ef78c505c963","678b1bdf6d0aefd65c71dcd2","678eb986d948f5180abedc44","","943","","1","",""
"","","","","","html-button-response","52","244014","0.0-4.48-0.48-0.48","18","1","2025-01-20 21:02:09","8e5ef0ea70509e21e61f535100ed03ac","23.151.72.4","Mozilla/5.0 (Windows NT 10.0; Win64; x64) AppleWebKit/537.36 (KHTML, like Gecko) Chrome/130.0.0.0 Safari/537.36","WebKit","Chrome","130.0.0.0","Windows","10.0","https://app.prolific.com/","en-US,en;q=0.9","674dd6189cf2ef78c505c963","678b1bdf6d0aefd65c71dcd2","678eb986d948f5180abedc44","","5513","","2","",""
"","","","","","html-button-response","53","244845","0.0-4.49-0.49-0.49","18","1","2025-01-20 21:02:09","8e5ef0ea70509e21e61f535100ed03ac","23.151.72.4","Mozilla/5.0 (Windows NT 10.0; Win64; x64) AppleWebKit/537.36 (KHTML, like Gecko) Chrome/130.0.0.0 Safari/537.36","WebKit","Chrome","130.0.0.0","Windows","10.0","https://app.prolific.com/","en-US,en;q=0.9","674dd6189cf2ef78c505c963","678b1bdf6d0aefd65c71dcd2","678eb986d948f5180abedc44","","825","","4","",""
"","","","","","html-button-response","54","245574","0.0-4.50-0.50-0.50","18","1","2025-01-20 21:02:09","8e5ef0ea70509e21e61f535100ed03ac","23.151.72.4","Mozilla/5.0 (Windows NT 10.0; Win64; x64) AppleWebKit/537.36 (KHTML, like Gecko) Chrome/130.0.0.0 Safari/537.36","WebKit","Chrome","130.0.0.0","Windows","10.0","https://app.prolific.com/","en-US,en;q=0.9","674dd6189cf2ef78c505c963","678b1bdf6d0aefd65c71dcd2","678eb986d948f5180abedc44","","723","","4","",""
"","","","","","html-button-response","55","246586","0.0-4.51-0.51-0.51","18","1","2025-01-20 21:02:09","8e5ef0ea70509e21e61f535100ed03ac","23.151.72.4","Mozilla/5.0 (Windows NT 10.0; Win64; x64) AppleWebKit/537.36 (KHTML, like Gecko) Chrome/130.0.0.0 Safari/537.36","WebKit","Chrome","130.0.0.0","Windows","10.0","https://app.prolific.com/","en-US,en;q=0.9","674dd6189cf2ef78c505c963","678b1bdf6d0aefd65c71dcd2","678eb986d948f5180abedc44","","1005","","2","",""
"","","","","","html-button-response","56","246687","0.0-4.52-0.52-0.52","18","1","2025-01-20 21:02:09","8e5ef0ea70509e21e61f535100ed03ac","23.151.72.4","Mozilla/5.0 (Windows NT 10.0; Win64; x64) AppleWebKit/537.36 (KHTML, like Gecko) Chrome/130.0.0.0 Safari/537.36","WebKit","Chrome","130.0.0.0","Windows","10.0","https://app.prolific.com/","en-US,en;q=0.9","674dd6189cf2ef78c505c963","678b1bdf6d0aefd65c71dcd2","678eb986d948f5180abedc44","","93","","2","",""
"","","","","","html-button-response","57","248649","0.0-4.53-0.53-0.53","18","1","2025-01-20 21:02:09","8e5ef0ea70509e21e61f535100ed03ac","23.151.72.4","Mozilla/5.0 (Windows NT 10.0; Win64; x64) AppleWebKit/537.36 (KHTML, like Gecko) Chrome/130.0.0.0 Safari/537.36","WebKit","Chrome","130.0.0.0","Windows","10.0","https://app.prolific.com/","en-US,en;q=0.9","674dd6189cf2ef78c505c963","678b1bdf6d0aefd65c71dcd2","678eb986d948f5180abedc44","","1950","","4","",""
"","","","","","html-button-response","58","249549","0.0-4.54-0.54-0.54","18","1","2025-01-20 21:02:09","8e5ef0ea70509e21e61f535100ed03ac","23.151.72.4","Mozilla/5.0 (Windows NT 10.0; Win64; x64) AppleWebKit/537.36 (KHTML, like Gecko) Chrome/130.0.0.0 Safari/537.36","WebKit","Chrome","130.0.0.0","Windows","10.0","https://app.prolific.com/","en-US,en;q=0.9","674dd6189cf2ef78c505c963","678b1bdf6d0aefd65c71dcd2","678eb986d948f5180abedc44","","892","","3","",""
"","","","","","html-button-response","59","250177","0.0-4.55-0.55-0.55","18","1","2025-01-20 21:02:09","8e5ef0ea70509e21e61f535100ed03ac","23.151.72.4","Mozilla/5.0 (Windows NT 10.0; Win64; x64) AppleWebKit/537.36 (KHTML, like Gecko) Chrome/130.0.0.0 Safari/537.36","WebKit","Chrome","130.0.0.0","Windows","10.0","https://app.prolific.com/","en-US,en;q=0.9","674dd6189cf2ef78c505c963","678b1bdf6d0aefd65c71dcd2","678eb986d948f5180abedc44","","621","","4","",""
"","","","","","html-button-response","60","251599","0.0-4.56-0.56-0.56","18","1","2025-01-20 21:02:09","8e5ef0ea70509e21e61f535100ed03ac","23.151.72.4","Mozilla/5.0 (Windows NT 10.0; Win64; x64) AppleWebKit/537.36 (KHTML, like Gecko) Chrome/130.0.0.0 Safari/537.36","WebKit","Chrome","130.0.0.0","Windows","10.0","https://app.prolific.com/","en-US,en;q=0.9","674dd6189cf2ef78c505c963","678b1bdf6d0aefd65c71dcd2","678eb986d948f5180abedc44","","1415","","3","",""
"","","","","","html-button-response","61","252228","0.0-4.57-0.57-0.57","18","1","2025-01-20 21:02:09","8e5ef0ea70509e21e61f535100ed03ac","23.151.72.4","Mozilla/5.0 (Windows NT 10.0; Win64; x64) AppleWebKit/537.36 (KHTML, like Gecko) Chrome/130.0.0.0 Safari/537.36","WebKit","Chrome","130.0.0.0","Windows","10.0","https://app.prolific.com/","en-US,en;q=0.9","674dd6189cf2ef78c505c963","678b1bdf6d0aefd65c71dcd2","678eb986d948f5180abedc44","","619","","4","",""
"","","","","","html-button-response","62","252997","0.0-4.58-0.58-0.58","18","1","2025-01-20 21:02:09","8e5ef0ea70509e21e61f535100ed03ac","23.151.72.4","Mozilla/5.0 (Windows NT 10.0; Win64; x64) AppleWebKit/537.36 (KHTML, like Gecko) Chrome/130.0.0.0 Safari/537.36","WebKit","Chrome","130.0.0.0","Windows","10.0","https://app.prolific.com/","en-US,en;q=0.9","674dd6189cf2ef78c505c963","678b1bdf6d0aefd65c71dcd2","678eb986d948f5180abedc44","","760","","3","",""
"","","","","","html-button-response","63","253756","0.0-4.59-0.59-0.59","18","1","2025-01-20 21:02:09","8e5ef0ea70509e21e61f535100ed03ac","23.151.72.4","Mozilla/5.0 (Windows NT 10.0; Win64; x64) AppleWebKit/537.36 (KHTML, like Gecko) Chrome/130.0.0.0 Safari/537.36","WebKit","Chrome","130.0.0.0","Windows","10.0","https://app.prolific.com/","en-US,en;q=0.9","674dd6189cf2ef78c505c963","678b1bdf6d0aefd65c71dcd2","678eb986d948f5180abedc44","","753","","2","",""
"","","","","","html-button-response","64","254424","0.0-4.60-0.60-0.60","18","1","2025-01-20 21:02:09","8e5ef0ea70509e21e61f535100ed03ac","23.151.72.4","Mozilla/5.0 (Windows NT 10.0; Win64; x64) AppleWebKit/537.36 (KHTML, like Gecko) Chrome/130.0.0.0 Safari/537.36","WebKit","Chrome","130.0.0.0","Windows","10.0","https://app.prolific.com/","en-US,en;q=0.9","674dd6189cf2ef78c505c963","678b1bdf6d0aefd65c71dcd2","678eb986d948f5180abedc44","","658","","1","",""
"","","","","","html-button-response","65","261127","0.0-4.61-0.61-0.61","18","1","2025-01-20 21:02:09","8e5ef0ea70509e21e61f535100ed03ac","23.151.72.4","Mozilla/5.0 (Windows NT 10.0; Win64; x64) AppleWebKit/537.36 (KHTML, like Gecko) Chrome/130.0.0.0 Safari/537.36","WebKit","Chrome","130.0.0.0","Windows","10.0","https://app.prolific.com/","en-US,en;q=0.9","674dd6189cf2ef78c505c963","678b1bdf6d0aefd65c71dcd2","678eb986d948f5180abedc44","","6695","","0","",""
"","","","","","html-button-response","66","261944","0.0-4.62-0.62-0.62","18","1","2025-01-20 21:02:09","8e5ef0ea70509e21e61f535100ed03ac","23.151.72.4","Mozilla/5.0 (Windows NT 10.0; Win64; x64) AppleWebKit/537.36 (KHTML, like Gecko) Chrome/130.0.0.0 Safari/537.36","WebKit","Chrome","130.0.0.0","Windows","10.0","https://app.prolific.com/","en-US,en;q=0.9","674dd6189cf2ef78c505c963","678b1bdf6d0aefd65c71dcd2","678eb986d948f5180abedc44","","811","","1","",""
"","","","","","html-button-response","67","262852","0.0-4.63-0.63-0.63","18","1","2025-01-20 21:02:09","8e5ef0ea70509e21e61f535100ed03ac","23.151.72.4","Mozilla/5.0 (Windows NT 10.0; Win64; x64) AppleWebKit/537.36 (KHTML, like Gecko) Chrome/130.0.0.0 Safari/537.36","WebKit","Chrome","130.0.0.0","Windows","10.0","https://app.prolific.com/","en-US,en;q=0.9","674dd6189cf2ef78c505c963","678b1bdf6d0aefd65c71dcd2","678eb986d948f5180abedc44","","900","","2","",""
"","","","","","html-button-response","68","264289","0.0-4.64-0.64-0.64","18","1","2025-01-20 21:02:09","8e5ef0ea70509e21e61f535100ed03ac","23.151.72.4","Mozilla/5.0 (Windows NT 10.0; Win64; x64) AppleWebKit/537.36 (KHTML, like Gecko) Chrome/130.0.0.0 Safari/537.36","WebKit","Chrome","130.0.0.0","Windows","10.0","https://app.prolific.com/","en-US,en;q=0.9","674dd6189cf2ef78c505c963","678b1bdf6d0aefd65c71dcd2","678eb986d948f5180abedc44","","1429","","2","",""
"","","","","","html-button-response","69","265595","0.0-4.65-0.65-0.65","18","1","2025-01-20 21:02:09","8e5ef0ea70509e21e61f535100ed03ac","23.151.72.4","Mozilla/5.0 (Windows NT 10.0; Win64; x64) AppleWebKit/537.36 (KHTML, like Gecko) Chrome/130.0.0.0 Safari/537.36","WebKit","Chrome","130.0.0.0","Windows","10.0","https://app.prolific.com/","en-US,en;q=0.9","674dd6189cf2ef78c505c963","678b1bdf6d0aefd65c71dcd2","678eb986d948f5180abedc44","","1298","","4","",""
"","","","","","html-button-response","70","266738","0.0-4.66-0.66-0.66","18","1","2025-01-20 21:02:09","8e5ef0ea70509e21e61f535100ed03ac","23.151.72.4","Mozilla/5.0 (Windows NT 10.0; Win64; x64) AppleWebKit/537.36 (KHTML, like Gecko) Chrome/130.0.0.0 Safari/537.36","WebKit","Chrome","130.0.0.0","Windows","10.0","https://app.prolific.com/","en-US,en;q=0.9","674dd6189cf2ef78c505c963","678b1bdf6d0aefd65c71dcd2","678eb986d948f5180abedc44","","1135","","2","",""
"","","","","","html-button-response","71","268022","0.0-4.67-0.67-0.67","18","1","2025-01-20 21:02:09","8e5ef0ea70509e21e61f535100ed03ac","23.151.72.4","Mozilla/5.0 (Windows NT 10.0; Win64; x64) AppleWebKit/537.36 (KHTML, like Gecko) Chrome/130.0.0.0 Safari/537.36","WebKit","Chrome","130.0.0.0","Windows","10.0","https://app.prolific.com/","en-US,en;q=0.9","674dd6189cf2ef78c505c963","678b1bdf6d0aefd65c71dcd2","678eb986d948f5180abedc44","","1276","","0","",""
"","","","","","html-button-response","72","268954","0.0-4.68-0.68-0.68","18","1","2025-01-20 21:02:09","8e5ef0ea70509e21e61f535100ed03ac","23.151.72.4","Mozilla/5.0 (Windows NT 10.0; Win64; x64) AppleWebKit/537.36 (KHTML, like Gecko) Chrome/130.0.0.0 Safari/537.36","WebKit","Chrome","130.0.0.0","Windows","10.0","https://app.prolific.com/","en-US,en;q=0.9","674dd6189cf2ef78c505c963","678b1bdf6d0aefd65c71dcd2","678eb986d948f5180abedc44","","923","","1","",""
"","","","","","html-button-response","73","269854","0.0-4.69-0.69-0.69","18","1","2025-01-20 21:02:09","8e5ef0ea70509e21e61f535100ed03ac","23.151.72.4","Mozilla/5.0 (Windows NT 10.0; Win64; x64) AppleWebKit/537.36 (KHTML, like Gecko) Chrome/130.0.0.0 Safari/537.36","WebKit","Chrome","130.0.0.0","Windows","10.0","https://app.prolific.com/","en-US,en;q=0.9","674dd6189cf2ef78c505c963","678b1bdf6d0aefd65c71dcd2","678eb986d948f5180abedc44","","891","","3","",""
"","","","","","html-button-response","74","270421","0.0-4.70-0.70-0.70","18","1","2025-01-20 21:02:09","8e5ef0ea70509e21e61f535100ed03ac","23.151.72.4","Mozilla/5.0 (Windows NT 10.0; Win64; x64) AppleWebKit/537.36 (KHTML, like Gecko) Chrome/130.0.0.0 Safari/537.36","WebKit","Chrome","130.0.0.0","Windows","10.0","https://app.prolific.com/","en-US,en;q=0.9","674dd6189cf2ef78c505c963","678b1bdf6d0aefd65c71dcd2","678eb986d948f5180abedc44","","558","","3","",""
"","","","","","html-button-response","75","271493","0.0-4.71-0.71-0.71","18","1","2025-01-20 21:02:09","8e5ef0ea70509e21e61f535100ed03ac","23.151.72.4","Mozilla/5.0 (Windows NT 10.0; Win64; x64) AppleWebKit/537.36 (KHTML, like Gecko) Chrome/130.0.0.0 Safari/537.36","WebKit","Chrome","130.0.0.0","Windows","10.0","https://app.prolific.com/","en-US,en;q=0.9","674dd6189cf2ef78c505c963","678b1bdf6d0aefd65c71dcd2","678eb986d948f5180abedc44","","1063","","0","",""
"","","","","","html-button-response","76","275171","0.0-4.72-0.72-0.72","18","1","2025-01-20 21:02:09","8e5ef0ea70509e21e61f535100ed03ac","23.151.72.4","Mozilla/5.0 (Windows NT 10.0; Win64; x64) AppleWebKit/537.36 (KHTML, like Gecko) Chrome/130.0.0.0 Safari/537.36","WebKit","Chrome","130.0.0.0","Windows","10.0","https://app.prolific.com/","en-US,en;q=0.9","674dd6189cf2ef78c505c963","678b1bdf6d0aefd65c71dcd2","678eb986d948f5180abedc44","","3669","","5","",""
"","","","","","html-keyboard-response","77","310099","0.0-5.0","18","1","2025-01-20 21:02:09","8e5ef0ea70509e21e61f535100ed03ac","23.151.72.4","Mozilla/5.0 (Windows NT 10.0; Win64; x64) AppleWebKit/537.36 (KHTML, like Gecko) Chrome/130.0.0.0 Safari/537.36","WebKit","Chrome","130.0.0.0","Windows","10.0","https://app.prolific.com/","en-US,en;q=0.9","674dd6189cf2ef78c505c963","678b1bdf6d0aefd65c71dcd2","678eb986d948f5180abedc44","","34919","[""You sorted correctly by using the balance 34 times. <br><br> <img src='G_5.jpg' height='90'><img src='G_2.jpg' height='90'><img src='G_3.jpg' height='90'><img src='G_1.jpg' height='90'><img src='G_4.jpg' height='90'><br><br> Your final order is 1,2,3,4,5<br><br><br>Omgne Sort in this game will allow you to sort correctly by using the balance 8 times. Press Enter to learn it!""]","enter","",""
"","","","","","html-keyboard-response","78","313266","0.0-6.0","18","1","2025-01-20 21:02:09","8e5ef0ea70509e21e61f535100ed03ac","23.151.72.4","Mozilla/5.0 (Windows NT 10.0; Win64; x64) AppleWebKit/537.36 (KHTML, like Gecko) Chrome/130.0.0.0 Safari/537.36","WebKit","Chrome","130.0.0.0","Windows","10.0","https://app.prolific.com/","en-US,en;q=0.9","674dd6189cf2ef78c505c963","678b1bdf6d0aefd65c71dcd2","678eb986d948f5180abedc44","","3161","<p>Welcome to the learning phase! <br><br> You will learn by six examples. The following learning trials will not be used to calculate your performance. <br><br> Press Enter to continue.<p/>"," ","",""
"","","","","","html-keyboard-response","79","317769","0.0-7.0","18","1","2025-01-20 21:02:09","8e5ef0ea70509e21e61f535100ed03ac","23.151.72.4","Mozilla/5.0 (Windows NT 10.0; Win64; x64) AppleWebKit/537.36 (KHTML, like Gecko) Chrome/130.0.0.0 Safari/537.36","WebKit","Chrome","130.0.0.0","Windows","10.0","https://app.prolific.com/","en-US,en;q=0.9","674dd6189cf2ef78c505c963","678b1bdf6d0aefd65c71dcd2","678eb986d948f5180abedc44","","4499","[""Example 1<br><br>You will watch Omnge Sort in action. Try to identify any patterns in the comparisons made by this method. <br><br>Press Enter to continue.""]","enter","",""
"","","","","","html-keyboard-response","80","318279","0.0-8.0","18","1","2025-01-20 21:02:09","8e5ef0ea70509e21e61f535100ed03ac","23.151.72.4","Mozilla/5.0 (Windows NT 10.0; Win64; x64) AppleWebKit/537.36 (KHTML, like Gecko) Chrome/130.0.0.0 Safari/537.36","WebKit","Chrome","130.0.0.0","Windows","10.0","https://app.prolific.com/","en-US,en;q=0.9","674dd6189cf2ef78c505c963","678b1bdf6d0aefd65c71dcd2","678eb986d948f5180abedc44","","null","<img id='selected' src='G_9.jpg' height='90'> <img src='G_1.jpg' height='90'> <img src='G_3.jpg' height='90'> <img src='G_7.jpg' height='90'> <img src='G_5.jpg' height='90'>","null","Animation0",""
"","","","","","html-keyboard-response","81","318795","0.0-9.0","18","1","2025-01-20 21:02:09","8e5ef0ea70509e21e61f535100ed03ac","23.151.72.4","Mozilla/5.0 (Windows NT 10.0; Win64; x64) AppleWebKit/537.36 (KHTML, like Gecko) Chrome/130.0.0.0 Safari/537.36","WebKit","Chrome","130.0.0.0","Windows","10.0","https://app.prolific.com/","en-US,en;q=0.9","674dd6189cf2ef78c505c963","678b1bdf6d0aefd65c71dcd2","678eb986d948f5180abedc44","","null","<img id='selected' src='G_9.jpg' height='90'> <img id='selected' src='G_1.jpg' height='90'> <img src='G_3.jpg' height='90'> <img src='G_7.jpg' height='90'> <img src='G_5.jpg' height='90'>","null","Animation0",""
"","","","","","html-keyboard-response","82","319304","0.0-10.0","18","1","2025-01-20 21:02:09","8e5ef0ea70509e21e61f535100ed03ac","23.151.72.4","Mozilla/5.0 (Windows NT 10.0; Win64; x64) AppleWebKit/537.36 (KHTML, like Gecko) Chrome/130.0.0.0 Safari/537.36","WebKit","Chrome","130.0.0.0","Windows","10.0","https://app.prolific.com/","en-US,en;q=0.9","674dd6189cf2ef78c505c963","678b1bdf6d0aefd65c71dcd2","678eb986d948f5180abedc44","","null","<img id='swapped' src='G_1.jpg' height='90'> <img id='swapped' src='G_9.jpg' height='90'> <img src='G_3.jpg' height='90'> <img src='G_7.jpg' height='90'> <img src='G_5.jpg' height='90'>","null","Animation0",""
"","","","","","html-keyboard-response","83","319624","0.0-11.0","18","1","2025-01-20 21:02:09","8e5ef0ea70509e21e61f535100ed03ac","23.151.72.4","Mozilla/5.0 (Windows NT 10.0; Win64; x64) AppleWebKit/537.36 (KHTML, like Gecko) Chrome/130.0.0.0 Safari/537.36","WebKit","Chrome","130.0.0.0","Windows","10.0","https://app.prolific.com/","en-US,en;q=0.9","674dd6189cf2ef78c505c963","678b1bdf6d0aefd65c71dcd2","678eb986d948f5180abedc44","","null","<img  src='G_1.jpg' height='90'> <img  src='G_9.jpg' height='90'> <img src='G_3.jpg' height='90'> <img src='G_7.jpg' height='90'> <img src='G_5.jpg' height='90'>","null","Animation0",""
"","","","","","html-keyboard-response","84","320146","0.0-12.0","18","1","2025-01-20 21:02:09","8e5ef0ea70509e21e61f535100ed03ac","23.151.72.4","Mozilla/5.0 (Windows NT 10.0; Win64; x64) AppleWebKit/537.36 (KHTML, like Gecko) Chrome/130.0.0.0 Safari/537.36","WebKit","Chrome","130.0.0.0","Windows","10.0","https://app.prolific.com/","en-US,en;q=0.9","674dd6189cf2ef78c505c963","678b1bdf6d0aefd65c71dcd2","678eb986d948f5180abedc44","","null","<img  src='G_1.jpg' height='90'> <img id='selected'  src='G_9.jpg' height='90'> <img src='G_3.jpg' height='90'> <img src='G_7.jpg' height='90'> <img src='G_5.jpg' height='90'>","null","Animation0",""
"","","","","","html-keyboard-response","85","320660","0.0-13.0","18","1","2025-01-20 21:02:09","8e5ef0ea70509e21e61f535100ed03ac","23.151.72.4","Mozilla/5.0 (Windows NT 10.0; Win64; x64) AppleWebKit/537.36 (KHTML, like Gecko) Chrome/130.0.0.0 Safari/537.36","WebKit","Chrome","130.0.0.0","Windows","10.0","https://app.prolific.com/","en-US,en;q=0.9","674dd6189cf2ef78c505c963","678b1bdf6d0aefd65c71dcd2","678eb986d948f5180abedc44","","null","<img  src='G_1.jpg' height='90'> <img id='selected'  src='G_9.jpg' height='90'> <img id='selected' src='G_3.jpg' height='90'> <img src='G_7.jpg' height='90'> <img src='G_5.jpg' height='90'>","null","Animation0",""
"","","","","","html-keyboard-response","86","321175","0.0-14.0","18","1","2025-01-20 21:02:09","8e5ef0ea70509e21e61f535100ed03ac","23.151.72.4","Mozilla/5.0 (Windows NT 10.0; Win64; x64) AppleWebKit/537.36 (KHTML, like Gecko) Chrome/130.0.0.0 Safari/537.36","WebKit","Chrome","130.0.0.0","Windows","10.0","https://app.prolific.com/","en-US,en;q=0.9","674dd6189cf2ef78c505c963","678b1bdf6d0aefd65c71dcd2","678eb986d948f5180abedc44","","null","<img  src='G_1.jpg' height='90'> <img id='selected'  src='G_9.jpg' height='90'> <img id='selected' src='G_3.jpg' height='90'> <img src='G_7.jpg' height='90'> <img src='G_5.jpg' height='90'>","null","Animation0",""
"","","","","","html-keyboard-response","87","321490","0.0-15.0","18","1","2025-01-20 21:02:09","8e5ef0ea70509e21e61f535100ed03ac","23.151.72.4","Mozilla/5.0 (Windows NT 10.0; Win64; x64) AppleWebKit/537.36 (KHTML, like Gecko) Chrome/130.0.0.0 Safari/537.36","WebKit","Chrome","130.0.0.0","Windows","10.0","https://app.prolific.com/","en-US,en;q=0.9","674dd6189cf2ef78c505c963","678b1bdf6d0aefd65c71dcd2","678eb986d948f5180abedc44","","null","<img  src='G_1.jpg' height='90'> <img   src='G_9.jpg' height='90'> <img  src='G_3.jpg' height='90'> <img src='G_7.jpg' height='90'> <img src='G_5.jpg' height='90'>","null","Animation0",""
"","","","","","html-keyboard-response","88","322008","0.0-16.0","18","1","2025-01-20 21:02:09","8e5ef0ea70509e21e61f535100ed03ac","23.151.72.4","Mozilla/5.0 (Windows NT 10.0; Win64; x64) AppleWebKit/537.36 (KHTML, like Gecko) Chrome/130.0.0.0 Safari/537.36","WebKit","Chrome","130.0.0.0","Windows","10.0","https://app.prolific.com/","en-US,en;q=0.9","674dd6189cf2ef78c505c963","678b1bdf6d0aefd65c71dcd2","678eb986d948f5180abedc44","","null","<img  src='G_1.jpg' height='90'> <img   src='G_9.jpg' height='90'> <img id='selected'  src='G_3.jpg' height='90'> <img src='G_7.jpg' height='90'> <img src='G_5.jpg' height='90'>","null","Animation0",""
"","","","","","html-keyboard-response","89","322524","0.0-17.0","18","1","2025-01-20 21:02:09","8e5ef0ea70509e21e61f535100ed03ac","23.151.72.4","Mozilla/5.0 (Windows NT 10.0; Win64; x64) AppleWebKit/537.36 (KHTML, like Gecko) Chrome/130.0.0.0 Safari/537.36","WebKit","Chrome","130.0.0.0","Windows","10.0","https://app.prolific.com/","en-US,en;q=0.9","674dd6189cf2ef78c505c963","678b1bdf6d0aefd65c71dcd2","678eb986d948f5180abedc44","","null","<img  src='G_1.jpg' height='90'> <img   src='G_9.jpg' height='90'> <img id='selected'  src='G_3.jpg' height='90'> <img id='selected' src='G_7.jpg' height='90'> <img src='G_5.jpg' height='90'>","null","Animation0",""
"","","","","","html-keyboard-response","90","323040","0.0-18.0","18","1","2025-01-20 21:02:09","8e5ef0ea70509e21e61f535100ed03ac","23.151.72.4","Mozilla/5.0 (Windows NT 10.0; Win64; x64) AppleWebKit/537.36 (KHTML, like Gecko) Chrome/130.0.0.0 Safari/537.36","WebKit","Chrome","130.0.0.0","Windows","10.0","https://app.prolific.com/","en-US,en;q=0.9","674dd6189cf2ef78c505c963","678b1bdf6d0aefd65c71dcd2","678eb986d948f5180abedc44","","null","<img  src='G_1.jpg' height='90'> <img   src='G_9.jpg' height='90'> <img id='selected'  src='G_3.jpg' height='90'> <img id='selected' src='G_7.jpg' height='90'> <img src='G_5.jpg' height='90'>","null","Animation0",""
"","","","","","html-keyboard-response","91","323353","0.0-19.0","18","1","2025-01-20 21:02:09","8e5ef0ea70509e21e61f535100ed03ac","23.151.72.4","Mozilla/5.0 (Windows NT 10.0; Win64; x64) AppleWebKit/537.36 (KHTML, like Gecko) Chrome/130.0.0.0 Safari/537.36","WebKit","Chrome","130.0.0.0","Windows","10.0","https://app.prolific.com/","en-US,en;q=0.9","674dd6189cf2ef78c505c963","678b1bdf6d0aefd65c71dcd2","678eb986d948f5180abedc44","","null","<img  src='G_1.jpg' height='90'> <img   src='G_9.jpg' height='90'> <img   src='G_3.jpg' height='90'> <img  src='G_7.jpg' height='90'> <img src='G_5.jpg' height='90'>","null","Animation0",""
"","","","","","html-keyboard-response","92","323865","0.0-20.0","18","1","2025-01-20 21:02:09","8e5ef0ea70509e21e61f535100ed03ac","23.151.72.4","Mozilla/5.0 (Windows NT 10.0; Win64; x64) AppleWebKit/537.36 (KHTML, like Gecko) Chrome/130.0.0.0 Safari/537.36","WebKit","Chrome","130.0.0.0","Windows","10.0","https://app.prolific.com/","en-US,en;q=0.9","674dd6189cf2ef78c505c963","678b1bdf6d0aefd65c71dcd2","678eb986d948f5180abedc44","","null","<img  src='G_1.jpg' height='90'> <img   src='G_9.jpg' height='90'> <img   src='G_3.jpg' height='90'> <img id='selected'  src='G_7.jpg' height='90'> <img src='G_5.jpg' height='90'>","null","Animation0",""
"","","","","","html-keyboard-response","93","324374","0.0-21.0","18","1","2025-01-20 21:02:09","8e5ef0ea70509e21e61f535100ed03ac","23.151.72.4","Mozilla/5.0 (Windows NT 10.0; Win64; x64) AppleWebKit/537.36 (KHTML, like Gecko) Chrome/130.0.0.0 Safari/537.36","WebKit","Chrome","130.0.0.0","Windows","10.0","https://app.prolific.com/","en-US,en;q=0.9","674dd6189cf2ef78c505c963","678b1bdf6d0aefd65c71dcd2","678eb986d948f5180abedc44","","null","<img  src='G_1.jpg' height='90'> <img   src='G_9.jpg' height='90'> <img   src='G_3.jpg' height='90'> <img id='selected'  src='G_7.jpg' height='90'> <img id='selected' src='G_5.jpg' height='90'>","null","Animation0",""
"","","","","","html-keyboard-response","94","324890","0.0-22.0","18","1","2025-01-20 21:02:09","8e5ef0ea70509e21e61f535100ed03ac","23.151.72.4","Mozilla/5.0 (Windows NT 10.0; Win64; x64) AppleWebKit/537.36 (KHTML, like Gecko) Chrome/130.0.0.0 Safari/537.36","WebKit","Chrome","130.0.0.0","Windows","10.0","https://app.prolific.com/","en-US,en;q=0.9","674dd6189cf2ef78c505c963","678b1bdf6d0aefd65c71dcd2","678eb986d948f5180abedc44","","null","<img  src='G_1.jpg' height='90'> <img   src='G_9.jpg' height='90'> <img   src='G_3.jpg' height='90'> <img id='selected'  src='G_7.jpg' height='90'> <img id='selected' src='G_5.jpg' height='90'>","null","Animation0",""
"","","","","","html-keyboard-response","95","325203","0.0-23.0","18","1","2025-01-20 21:02:09","8e5ef0ea70509e21e61f535100ed03ac","23.151.72.4","Mozilla/5.0 (Windows NT 10.0; Win64; x64) AppleWebKit/537.36 (KHTML, like Gecko) Chrome/130.0.0.0 Safari/537.36","WebKit","Chrome","130.0.0.0","Windows","10.0","https://app.prolific.com/","en-US,en;q=0.9","674dd6189cf2ef78c505c963","678b1bdf6d0aefd65c71dcd2","678eb986d948f5180abedc44","","null","<img  src='G_1.jpg' height='90'> <img   src='G_9.jpg' height='90'> <img   src='G_3.jpg' height='90'> <img   src='G_7.jpg' height='90'> <img  src='G_5.jpg' height='90'>","null","Animation0",""
"","","","","","html-keyboard-response","96","329929","0.0-24.0","18","1","2025-01-20 21:02:09","8e5ef0ea70509e21e61f535100ed03ac","23.151.72.4","Mozilla/5.0 (Windows NT 10.0; Win64; x64) AppleWebKit/537.36 (KHTML, like Gecko) Chrome/130.0.0.0 Safari/537.36","WebKit","Chrome","130.0.0.0","Windows","10.0","https://app.prolific.com/","en-US,en;q=0.9","674dd6189cf2ef78c505c963","678b1bdf6d0aefd65c71dcd2","678eb986d948f5180abedc44","","4720","[""Did you notice any patterns? <br><br>Press Enter to watch that example again and follow the steps of Omgne Sort.""]","enter","",""
"","","","","","html-button-response","97","330345","0.0-25.0","18","1","2025-01-20 21:02:09","8e5ef0ea70509e21e61f535100ed03ac","23.151.72.4","Mozilla/5.0 (Windows NT 10.0; Win64; x64) AppleWebKit/537.36 (KHTML, like Gecko) Chrome/130.0.0.0 Safari/537.36","WebKit","Chrome","130.0.0.0","Windows","10.0","https://app.prolific.com/","en-US,en;q=0.9","674dd6189cf2ef78c505c963","678b1bdf6d0aefd65c71dcd2","678eb986d948f5180abedc44","","null","<img id='selected' src='G_9.jpg' height='90'> <img src='G_1.jpg' height='90'> <img src='G_3.jpg' height='90'> <img src='G_7.jpg' height='90'> <img src='G_5.jpg' height='90'>","null","Learning example 0",""
"","","","","","html-button-response","98","330657","0.0-26.0","18","1","2025-01-20 21:02:09","8e5ef0ea70509e21e61f535100ed03ac","23.151.72.4","Mozilla/5.0 (Windows NT 10.0; Win64; x64) AppleWebKit/537.36 (KHTML, like Gecko) Chrome/130.0.0.0 Safari/537.36","WebKit","Chrome","130.0.0.0","Windows","10.0","https://app.prolific.com/","en-US,en;q=0.9","674dd6189cf2ef78c505c963","678b1bdf6d0aefd65c71dcd2","678eb986d948f5180abedc44","","null","<img id='selected' src='G_9.jpg' height='90'> <img id='selected' src='G_1.jpg' height='90'> <img src='G_3.jpg' height='90'> <img src='G_7.jpg' height='90'> <img src='G_5.jpg' height='90'>","null","Learning example 0",""
"","","","","","html-button-response","99","330965","0.0-27.0","18","1","2025-01-20 21:02:09","8e5ef0ea70509e21e61f535100ed03ac","23.151.72.4","Mozilla/5.0 (Windows NT 10.0; Win64; x64) AppleWebKit/537.36 (KHTML, like Gecko) Chrome/130.0.0.0 Safari/537.36","WebKit","Chrome","130.0.0.0","Windows","10.0","https://app.prolific.com/","en-US,en;q=0.9","674dd6189cf2ef78c505c963","678b1bdf6d0aefd65c71dcd2","678eb986d948f5180abedc44","","null","<img id='swapped' src='G_1.jpg' height='90'> <img id='swapped' src='G_9.jpg' height='90'> <img src='G_3.jpg' height='90'> <img src='G_7.jpg' height='90'> <img src='G_5.jpg' height='90'>","null","Learning example 0",""
"","","","","","html-button-response","100","374223","0.0-28.0-0.0-0.0","18","1","2025-01-20 21:02:09","8e5ef0ea70509e21e61f535100ed03ac","23.151.72.4","Mozilla/5.0 (Windows NT 10.0; Win64; x64) AppleWebKit/537.36 (KHTML, like Gecko) Chrome/130.0.0.0 Safari/537.36","WebKit","Chrome","130.0.0.0","Windows","10.0","https://app.prolific.com/","en-US,en;q=0.9","674dd6189cf2ef78c505c963","678b1bdf6d0aefd65c71dcd2","678eb986d948f5180abedc44","","43246","<img id='swapped' src='G_1.jpg' height='90'> <img id='swapped' src='G_9.jpg' height='90'> <img src='G_3.jpg' height='90'> <img src='G_7.jpg' height='90'> <img src='G_5.jpg' height='90'>","1","Learning example 0",""
"","","","","","html-button-response","101","375263","0.0-28.1-0.1-0.1","18","1","2025-01-20 21:02:09","8e5ef0ea70509e21e61f535100ed03ac","23.151.72.4","Mozilla/5.0 (Windows NT 10.0; Win64; x64) AppleWebKit/537.36 (KHTML, like Gecko) Chrome/130.0.0.0 Safari/537.36","WebKit","Chrome","130.0.0.0","Windows","10.0","https://app.prolific.com/","en-US,en;q=0.9","674dd6189cf2ef78c505c963","678b1bdf6d0aefd65c71dcd2","678eb986d948f5180abedc44","","1029","<img id='swapped' src='G_1.jpg' height='90'> <img id='swapped' src='G_9.jpg' height='90'> <img src='G_3.jpg' height='90'> <img src='G_7.jpg' height='90'> <img src='G_5.jpg' height='90'>","0","Learning example 0",""
"","","","","","html-button-response","102","375479","0.0-29.0","18","1","2025-01-20 21:02:09","8e5ef0ea70509e21e61f535100ed03ac","23.151.72.4","Mozilla/5.0 (Windows NT 10.0; Win64; x64) AppleWebKit/537.36 (KHTML, like Gecko) Chrome/130.0.0.0 Safari/537.36","WebKit","Chrome","130.0.0.0","Windows","10.0","https://app.prolific.com/","en-US,en;q=0.9","674dd6189cf2ef78c505c963","678b1bdf6d0aefd65c71dcd2","678eb986d948f5180abedc44","","null","<img  src='G_1.jpg' height='90'> <img  src='G_9.jpg' height='90'> <img src='G_3.jpg' height='90'> <img src='G_7.jpg' height='90'> <img src='G_5.jpg' height='90'>","null","Learning example 0",""
"","","","","","html-button-response","103","375905","0.0-30.0","18","1","2025-01-20 21:02:09","8e5ef0ea70509e21e61f535100ed03ac","23.151.72.4","Mozilla/5.0 (Windows NT 10.0; Win64; x64) AppleWebKit/537.36 (KHTML, like Gecko) Chrome/130.0.0.0 Safari/537.36","WebKit","Chrome","130.0.0.0","Windows","10.0","https://app.prolific.com/","en-US,en;q=0.9","674dd6189cf2ef78c505c963","678b1bdf6d0aefd65c71dcd2","678eb986d948f5180abedc44","","null","<img  src='G_1.jpg' height='90'> <img id='selected'  src='G_9.jpg' height='90'> <img src='G_3.jpg' height='90'> <img src='G_7.jpg' height='90'> <img src='G_5.jpg' height='90'>","null","Learning example 0",""
"","","","","","html-button-response","104","376234","0.0-31.0","18","1","2025-01-20 21:02:09","8e5ef0ea70509e21e61f535100ed03ac","23.151.72.4","Mozilla/5.0 (Windows NT 10.0; Win64; x64) AppleWebKit/537.36 (KHTML, like Gecko) Chrome/130.0.0.0 Safari/537.36","WebKit","Chrome","130.0.0.0","Windows","10.0","https://app.prolific.com/","en-US,en;q=0.9","674dd6189cf2ef78c505c963","678b1bdf6d0aefd65c71dcd2","678eb986d948f5180abedc44","","null","<img  src='G_1.jpg' height='90'> <img id='selected'  src='G_9.jpg' height='90'> <img id='selected' src='G_3.jpg' height='90'> <img src='G_7.jpg' height='90'> <img src='G_5.jpg' height='90'>","null","Learning example 0",""
"","","","","","html-button-response","105","376560","0.0-32.0","18","1","2025-01-20 21:02:09","8e5ef0ea70509e21e61f535100ed03ac","23.151.72.4","Mozilla/5.0 (Windows NT 10.0; Win64; x64) AppleWebKit/537.36 (KHTML, like Gecko) Chrome/130.0.0.0 Safari/537.36","WebKit","Chrome","130.0.0.0","Windows","10.0","https://app.prolific.com/","en-US,en;q=0.9","674dd6189cf2ef78c505c963","678b1bdf6d0aefd65c71dcd2","678eb986d948f5180abedc44","","null","<img  src='G_1.jpg' height='90'> <img id='selected'  src='G_9.jpg' height='90'> <img id='selected' src='G_3.jpg' height='90'> <img src='G_7.jpg' height='90'> <img src='G_5.jpg' height='90'>","null","Learning example 0",""
"","","","","","html-button-response","106","381406","0.0-33.0-0.0-0.0","18","1","2025-01-20 21:02:09","8e5ef0ea70509e21e61f535100ed03ac","23.151.72.4","Mozilla/5.0 (Windows NT 10.0; Win64; x64) AppleWebKit/537.36 (KHTML, like Gecko) Chrome/130.0.0.0 Safari/537.36","WebKit","Chrome","130.0.0.0","Windows","10.0","https://app.prolific.com/","en-US,en;q=0.9","674dd6189cf2ef78c505c963","678b1bdf6d0aefd65c71dcd2","678eb986d948f5180abedc44","","4838","<img  src='G_1.jpg' height='90'> <img id='selected'  src='G_9.jpg' height='90'> <img id='selected' src='G_3.jpg' height='90'> <img src='G_7.jpg' height='90'> <img src='G_5.jpg' height='90'>","3","Learning example 0",""
"","","","","","html-button-response","107","384172","0.0-33.1-0.1-0.1","18","1","2025-01-20 21:02:09","8e5ef0ea70509e21e61f535100ed03ac","23.151.72.4","Mozilla/5.0 (Windows NT 10.0; Win64; x64) AppleWebKit/537.36 (KHTML, like Gecko) Chrome/130.0.0.0 Safari/537.36","WebKit","Chrome","130.0.0.0","Windows","10.0","https://app.prolific.com/","en-US,en;q=0.9","674dd6189cf2ef78c505c963","678b1bdf6d0aefd65c71dcd2","678eb986d948f5180abedc44","","2756","<img  src='G_1.jpg' height='90'> <img id='selected'  src='G_9.jpg' height='90'> <img id='selected' src='G_3.jpg' height='90'> <img src='G_7.jpg' height='90'> <img src='G_5.jpg' height='90'>","2","Learning example 0",""
"","","","","","html-button-response","108","385250","0.0-33.2-0.2-0.2","18","1","2025-01-20 21:02:09","8e5ef0ea70509e21e61f535100ed03ac","23.151.72.4","Mozilla/5.0 (Windows NT 10.0; Win64; x64) AppleWebKit/537.36 (KHTML, like Gecko) Chrome/130.0.0.0 Safari/537.36","WebKit","Chrome","130.0.0.0","Windows","10.0","https://app.prolific.com/","en-US,en;q=0.9","674dd6189cf2ef78c505c963","678b1bdf6d0aefd65c71dcd2","678eb986d948f5180abedc44","","1067","<img  src='G_1.jpg' height='90'> <img id='selected'  src='G_9.jpg' height='90'> <img id='selected' src='G_3.jpg' height='90'> <img src='G_7.jpg' height='90'> <img src='G_5.jpg' height='90'>","1","Learning example 0",""
"","","","","","html-button-response","109","385461","0.0-34.0","18","1","2025-01-20 21:02:09","8e5ef0ea70509e21e61f535100ed03ac","23.151.72.4","Mozilla/5.0 (Windows NT 10.0; Win64; x64) AppleWebKit/537.36 (KHTML, like Gecko) Chrome/130.0.0.0 Safari/537.36","WebKit","Chrome","130.0.0.0","Windows","10.0","https://app.prolific.com/","en-US,en;q=0.9","674dd6189cf2ef78c505c963","678b1bdf6d0aefd65c71dcd2","678eb986d948f5180abedc44","","null","<img  src='G_1.jpg' height='90'> <img   src='G_9.jpg' height='90'> <img  src='G_3.jpg' height='90'> <img src='G_7.jpg' height='90'> <img src='G_5.jpg' height='90'>","null","Learning example 0",""
"","","","","","html-button-response","110","385882","0.0-35.0","18","1","2025-01-20 21:02:09","8e5ef0ea70509e21e61f535100ed03ac","23.151.72.4","Mozilla/5.0 (Windows NT 10.0; Win64; x64) AppleWebKit/537.36 (KHTML, like Gecko) Chrome/130.0.0.0 Safari/537.36","WebKit","Chrome","130.0.0.0","Windows","10.0","https://app.prolific.com/","en-US,en;q=0.9","674dd6189cf2ef78c505c963","678b1bdf6d0aefd65c71dcd2","678eb986d948f5180abedc44","","null","<img  src='G_1.jpg' height='90'> <img   src='G_9.jpg' height='90'> <img id='selected'  src='G_3.jpg' height='90'> <img src='G_7.jpg' height='90'> <img src='G_5.jpg' height='90'>","null","Learning example 0",""
"","","","","","html-button-response","111","386207","0.0-36.0","18","1","2025-01-20 21:02:09","8e5ef0ea70509e21e61f535100ed03ac","23.151.72.4","Mozilla/5.0 (Windows NT 10.0; Win64; x64) AppleWebKit/537.36 (KHTML, like Gecko) Chrome/130.0.0.0 Safari/537.36","WebKit","Chrome","130.0.0.0","Windows","10.0","https://app.prolific.com/","en-US,en;q=0.9","674dd6189cf2ef78c505c963","678b1bdf6d0aefd65c71dcd2","678eb986d948f5180abedc44","","null","<img  src='G_1.jpg' height='90'> <img   src='G_9.jpg' height='90'> <img id='selected'  src='G_3.jpg' height='90'> <img id='selected' src='G_7.jpg' height='90'> <img src='G_5.jpg' height='90'>","null","Learning example 0",""
"","","","","","html-button-response","112","386518","0.0-37.0","18","1","2025-01-20 21:02:09","8e5ef0ea70509e21e61f535100ed03ac","23.151.72.4","Mozilla/5.0 (Windows NT 10.0; Win64; x64) AppleWebKit/537.36 (KHTML, like Gecko) Chrome/130.0.0.0 Safari/537.36","WebKit","Chrome","130.0.0.0","Windows","10.0","https://app.prolific.com/","en-US,en;q=0.9","674dd6189cf2ef78c505c963","678b1bdf6d0aefd65c71dcd2","678eb986d948f5180abedc44","","null","<img  src='G_1.jpg' height='90'> <img   src='G_9.jpg' height='90'> <img id='selected'  src='G_3.jpg' height='90'> <img id='selected' src='G_7.jpg' height='90'> <img src='G_5.jpg' height='90'>","null","Learning example 0",""
"","","","","","html-button-response","113","387491","0.0-38.0-0.0-0.0","18","1","2025-01-20 21:02:09","8e5ef0ea70509e21e61f535100ed03ac","23.151.72.4","Mozilla/5.0 (Windows NT 10.0; Win64; x64) AppleWebKit/537.36 (KHTML, like Gecko) Chrome/130.0.0.0 Safari/537.36","WebKit","Chrome","130.0.0.0","Windows","10.0","https://app.prolific.com/","en-US,en;q=0.9","674dd6189cf2ef78c505c963","678b1bdf6d0aefd65c71dcd2","678eb986d948f5180abedc44","","963","<img  src='G_1.jpg' height='90'> <img   src='G_9.jpg' height='90'> <img id='selected'  src='G_3.jpg' height='90'> <img id='selected' src='G_7.jpg' height='90'> <img src='G_5.jpg' height='90'>","3","Learning example 0",""
"","","","","","html-button-response","114","388391","0.0-38.1-0.1-0.1","18","1","2025-01-20 21:02:09","8e5ef0ea70509e21e61f535100ed03ac","23.151.72.4","Mozilla/5.0 (Windows NT 10.0; Win64; x64) AppleWebKit/537.36 (KHTML, like Gecko) Chrome/130.0.0.0 Safari/537.36","WebKit","Chrome","130.0.0.0","Windows","10.0","https://app.prolific.com/","en-US,en;q=0.9","674dd6189cf2ef78c505c963","678b1bdf6d0aefd65c71dcd2","678eb986d948f5180abedc44","","890","<img  src='G_1.jpg' height='90'> <img   src='G_9.jpg' height='90'> <img id='selected'  src='G_3.jpg' height='90'> <img id='selected' src='G_7.jpg' height='90'> <img src='G_5.jpg' height='90'>","2","Learning example 0",""
"","","","","","html-button-response","115","388606","0.0-39.0","18","1","2025-01-20 21:02:09","8e5ef0ea70509e21e61f535100ed03ac","23.151.72.4","Mozilla/5.0 (Windows NT 10.0; Win64; x64) AppleWebKit/537.36 (KHTML, like Gecko) Chrome/130.0.0.0 Safari/537.36","WebKit","Chrome","130.0.0.0","Windows","10.0","https://app.prolific.com/","en-US,en;q=0.9","674dd6189cf2ef78c505c963","678b1bdf6d0aefd65c71dcd2","678eb986d948f5180abedc44","","null","<img  src='G_1.jpg' height='90'> <img   src='G_9.jpg' height='90'> <img   src='G_3.jpg' height='90'> <img  src='G_7.jpg' height='90'> <img src='G_5.jpg' height='90'>","null","Learning example 0",""
"","","","","","html-button-response","116","389016","0.0-40.0","18","1","2025-01-20 21:02:09","8e5ef0ea70509e21e61f535100ed03ac","23.151.72.4","Mozilla/5.0 (Windows NT 10.0; Win64; x64) AppleWebKit/537.36 (KHTML, like Gecko) Chrome/130.0.0.0 Safari/537.36","WebKit","Chrome","130.0.0.0","Windows","10.0","https://app.prolific.com/","en-US,en;q=0.9","674dd6189cf2ef78c505c963","678b1bdf6d0aefd65c71dcd2","678eb986d948f5180abedc44","","null","<img  src='G_1.jpg' height='90'> <img   src='G_9.jpg' height='90'> <img   src='G_3.jpg' height='90'> <img id='selected'  src='G_7.jpg' height='90'> <img src='G_5.jpg' height='90'>","null","Learning example 0",""
"","","","","","html-button-response","117","389327","0.0-41.0","18","1","2025-01-20 21:02:09","8e5ef0ea70509e21e61f535100ed03ac","23.151.72.4","Mozilla/5.0 (Windows NT 10.0; Win64; x64) AppleWebKit/537.36 (KHTML, like Gecko) Chrome/130.0.0.0 Safari/537.36","WebKit","Chrome","130.0.0.0","Windows","10.0","https://app.prolific.com/","en-US,en;q=0.9","674dd6189cf2ef78c505c963","678b1bdf6d0aefd65c71dcd2","678eb986d948f5180abedc44","","null","<img  src='G_1.jpg' height='90'> <img   src='G_9.jpg' height='90'> <img   src='G_3.jpg' height='90'> <img id='selected'  src='G_7.jpg' height='90'> <img id='selected' src='G_5.jpg' height='90'>","null","Learning example 0",""
"","","","","","html-button-response","118","389639","0.0-42.0","18","1","2025-01-20 21:02:09","8e5ef0ea70509e21e61f535100ed03ac","23.151.72.4","Mozilla/5.0 (Windows NT 10.0; Win64; x64) AppleWebKit/537.36 (KHTML, like Gecko) Chrome/130.0.0.0 Safari/537.36","WebKit","Chrome","130.0.0.0","Windows","10.0","https://app.prolific.com/","en-US,en;q=0.9","674dd6189cf2ef78c505c963","678b1bdf6d0aefd65c71dcd2","678eb986d948f5180abedc44","","null","<img  src='G_1.jpg' height='90'> <img   src='G_9.jpg' height='90'> <img   src='G_3.jpg' height='90'> <img id='selected'  src='G_7.jpg' height='90'> <img id='selected' src='G_5.jpg' height='90'>","null","Learning example 0",""
"","","","","","html-button-response","119","389845","0.0-43.0-0.0-0.0","18","1","2025-01-20 21:02:09","8e5ef0ea70509e21e61f535100ed03ac","23.151.72.4","Mozilla/5.0 (Windows NT 10.0; Win64; x64) AppleWebKit/537.36 (KHTML, like Gecko) Chrome/130.0.0.0 Safari/537.36","WebKit","Chrome","130.0.0.0","Windows","10.0","https://app.prolific.com/","en-US,en;q=0.9","674dd6189cf2ef78c505c963","678b1bdf6d0aefd65c71dcd2","678eb986d948f5180abedc44","","197","<img  src='G_1.jpg' height='90'> <img   src='G_9.jpg' height='90'> <img   src='G_3.jpg' height='90'> <img id='selected'  src='G_7.jpg' height='90'> <img id='selected' src='G_5.jpg' height='90'>","4","Learning example 0",""
"","","","","","html-button-response","120","390734","0.0-43.1-0.1-0.1","18","1","2025-01-20 21:02:09","8e5ef0ea70509e21e61f535100ed03ac","23.151.72.4","Mozilla/5.0 (Windows NT 10.0; Win64; x64) AppleWebKit/537.36 (KHTML, like Gecko) Chrome/130.0.0.0 Safari/537.36","WebKit","Chrome","130.0.0.0","Windows","10.0","https://app.prolific.com/","en-US,en;q=0.9","674dd6189cf2ef78c505c963","678b1bdf6d0aefd65c71dcd2","678eb986d948f5180abedc44","","872","<img  src='G_1.jpg' height='90'> <img   src='G_9.jpg' height='90'> <img   src='G_3.jpg' height='90'> <img id='selected'  src='G_7.jpg' height='90'> <img id='selected' src='G_5.jpg' height='90'>","3","Learning example 0",""
"","","","","","html-button-response","121","390960","0.0-44.0","18","1","2025-01-20 21:02:09","8e5ef0ea70509e21e61f535100ed03ac","23.151.72.4","Mozilla/5.0 (Windows NT 10.0; Win64; x64) AppleWebKit/537.36 (KHTML, like Gecko) Chrome/130.0.0.0 Safari/537.36","WebKit","Chrome","130.0.0.0","Windows","10.0","https://app.prolific.com/","en-US,en;q=0.9","674dd6189cf2ef78c505c963","678b1bdf6d0aefd65c71dcd2","678eb986d948f5180abedc44","","null","<img  src='G_1.jpg' height='90'> <img   src='G_9.jpg' height='90'> <img   src='G_3.jpg' height='90'> <img   src='G_7.jpg' height='90'> <img  src='G_5.jpg' height='90'>","null","Learning example 0",""
"","","","","","html-keyboard-response","122","481251","0.0-45.0","18","1","2025-01-20 21:02:09","8e5ef0ea70509e21e61f535100ed03ac","23.151.72.4","Mozilla/5.0 (Windows NT 10.0; Win64; x64) AppleWebKit/537.36 (KHTML, like Gecko) Chrome/130.0.0.0 Safari/537.36","WebKit","Chrome","130.0.0.0","Windows","10.0","https://app.prolific.com/","en-US,en;q=0.9","674dd6189cf2ef78c505c963","678b1bdf6d0aefd65c71dcd2","678eb986d948f5180abedc44","","90283","[""Final order was 1,2,3,4,5. The initial order was 2,1,3,4,5.<br>It took 1 swaps to sort it correctly with Omgne Sort. <br><br>Press Enter to continue.""]","enter","",""
"","","","","","html-keyboard-response","123","484657","0.0-46.0","18","1","2025-01-20 21:02:09","8e5ef0ea70509e21e61f535100ed03ac","23.151.72.4","Mozilla/5.0 (Windows NT 10.0; Win64; x64) AppleWebKit/537.36 (KHTML, like Gecko) Chrome/130.0.0.0 Safari/537.36","WebKit","Chrome","130.0.0.0","Windows","10.0","https://app.prolific.com/","en-US,en;q=0.9","674dd6189cf2ef78c505c963","678b1bdf6d0aefd65c71dcd2","678eb986d948f5180abedc44","","3400","[""Example 2<br><br>You will watch Omnge Sort in action. Try to identify any patterns in the comparisons made by this method. <br><br>Press Enter to continue.""]","enter","",""
"","","","","","html-keyboard-response","124","485166","0.0-47.0","18","1","2025-01-20 21:02:09","8e5ef0ea70509e21e61f535100ed03ac","23.151.72.4","Mozilla/5.0 (Windows NT 10.0; Win64; x64) AppleWebKit/537.36 (KHTML, like Gecko) Chrome/130.0.0.0 Safari/537.36","WebKit","Chrome","130.0.0.0","Windows","10.0","https://app.prolific.com/","en-US,en;q=0.9","674dd6189cf2ef78c505c963","678b1bdf6d0aefd65c71dcd2","678eb986d948f5180abedc44","","null","<img id='selected' src='G_6.jpg' height='90'> <img src='G_2.jpg' height='90'> <img src='G_7.jpg' height='90'> <img src='G_8.jpg' height='90'> <img src='G_3.jpg' height='90'> <img src='G_1.jpg' height='90'> <img src='G_4.jpg' height='90'> <img src='G_5.jpg' height='90'>","null","Animation1",""
"","","","","","html-keyboard-response","125","485688","0.0-48.0","18","1","2025-01-20 21:02:09","8e5ef0ea70509e21e61f535100ed03ac","23.151.72.4","Mozilla/5.0 (Windows NT 10.0; Win64; x64) AppleWebKit/537.36 (KHTML, like Gecko) Chrome/130.0.0.0 Safari/537.36","WebKit","Chrome","130.0.0.0","Windows","10.0","https://app.prolific.com/","en-US,en;q=0.9","674dd6189cf2ef78c505c963","678b1bdf6d0aefd65c71dcd2","678eb986d948f5180abedc44","","null","<img id='selected' src='G_6.jpg' height='90'> <img id='selected' src='G_2.jpg' height='90'> <img src='G_7.jpg' height='90'> <img src='G_8.jpg' height='90'> <img src='G_3.jpg' height='90'> <img src='G_1.jpg' height='90'> <img src='G_4.jpg' height='90'> <img src='G_5.jpg' height='90'>","null","Animation1",""
"","","","","","html-keyboard-response","126","486203","0.0-49.0","18","1","2025-01-20 21:02:09","8e5ef0ea70509e21e61f535100ed03ac","23.151.72.4","Mozilla/5.0 (Windows NT 10.0; Win64; x64) AppleWebKit/537.36 (KHTML, like Gecko) Chrome/130.0.0.0 Safari/537.36","WebKit","Chrome","130.0.0.0","Windows","10.0","https://app.prolific.com/","en-US,en;q=0.9","674dd6189cf2ef78c505c963","678b1bdf6d0aefd65c71dcd2","678eb986d948f5180abedc44","","null","<img id='selected' src='G_6.jpg' height='90'> <img id='selected' src='G_2.jpg' height='90'> <img src='G_7.jpg' height='90'> <img src='G_8.jpg' height='90'> <img src='G_3.jpg' height='90'> <img src='G_1.jpg' height='90'> <img src='G_4.jpg' height='90'> <img src='G_5.jpg' height='90'>","null","Animation1",""
"","","","","","html-keyboard-response","127","486513","0.0-50.0","18","1","2025-01-20 21:02:09","8e5ef0ea70509e21e61f535100ed03ac","23.151.72.4","Mozilla/5.0 (Windows NT 10.0; Win64; x64) AppleWebKit/537.36 (KHTML, like Gecko) Chrome/130.0.0.0 Safari/537.36","WebKit","Chrome","130.0.0.0","Windows","10.0","https://app.prolific.com/","en-US,en;q=0.9","674dd6189cf2ef78c505c963","678b1bdf6d0aefd65c71dcd2","678eb986d948f5180abedc44","","null","<img  src='G_6.jpg' height='90'> <img  src='G_2.jpg' height='90'> <img src='G_7.jpg' height='90'> <img src='G_8.jpg' height='90'> <img src='G_3.jpg' height='90'> <img src='G_1.jpg' height='90'> <img src='G_4.jpg' height='90'> <img src='G_5.jpg' height='90'>","null","Animation1",""
"","","","","","html-keyboard-response","128","487023","0.0-51.0","18","1","2025-01-20 21:02:09","8e5ef0ea70509e21e61f535100ed03ac","23.151.72.4","Mozilla/5.0 (Windows NT 10.0; Win64; x64) AppleWebKit/537.36 (KHTML, like Gecko) Chrome/130.0.0.0 Safari/537.36","WebKit","Chrome","130.0.0.0","Windows","10.0","https://app.prolific.com/","en-US,en;q=0.9","674dd6189cf2ef78c505c963","678b1bdf6d0aefd65c71dcd2","678eb986d948f5180abedc44","","null","<img  src='G_6.jpg' height='90'> <img id='selected'  src='G_2.jpg' height='90'> <img src='G_7.jpg' height='90'> <img src='G_8.jpg' height='90'> <img src='G_3.jpg' height='90'> <img src='G_1.jpg' height='90'> <img src='G_4.jpg' height='90'> <img src='G_5.jpg' height='90'>","null","Animation1",""
"","","","","","html-keyboard-response","129","487534","0.0-52.0","18","1","2025-01-20 21:02:09","8e5ef0ea70509e21e61f535100ed03ac","23.151.72.4","Mozilla/5.0 (Windows NT 10.0; Win64; x64) AppleWebKit/537.36 (KHTML, like Gecko) Chrome/130.0.0.0 Safari/537.36","WebKit","Chrome","130.0.0.0","Windows","10.0","https://app.prolific.com/","en-US,en;q=0.9","674dd6189cf2ef78c505c963","678b1bdf6d0aefd65c71dcd2","678eb986d948f5180abedc44","","null","<img  src='G_6.jpg' height='90'> <img id='selected'  src='G_2.jpg' height='90'> <img id='selected' src='G_7.jpg' height='90'> <img src='G_8.jpg' height='90'> <img src='G_3.jpg' height='90'> <img src='G_1.jpg' height='90'> <img src='G_4.jpg' height='90'> <img src='G_5.jpg' height='90'>","null","Animation1",""
"","","","","","html-keyboard-response","130","488055","0.0-53.0","18","1","2025-01-20 21:02:09","8e5ef0ea70509e21e61f535100ed03ac","23.151.72.4","Mozilla/5.0 (Windows NT 10.0; Win64; x64) AppleWebKit/537.36 (KHTML, like Gecko) Chrome/130.0.0.0 Safari/537.36","WebKit","Chrome","130.0.0.0","Windows","10.0","https://app.prolific.com/","en-US,en;q=0.9","674dd6189cf2ef78c505c963","678b1bdf6d0aefd65c71dcd2","678eb986d948f5180abedc44","","null","<img  src='G_6.jpg' height='90'> <img id='swapped' src='G_7.jpg' height='90'> <img id='swapped'  src='G_2.jpg' height='90'> <img src='G_8.jpg' height='90'> <img src='G_3.jpg' height='90'> <img src='G_1.jpg' height='90'> <img src='G_4.jpg' height='90'> <img src='G_5.jpg' height='90'>","null","Animation1",""
"","","","","","html-keyboard-response","131","488367","0.0-54.0","18","1","2025-01-20 21:02:09","8e5ef0ea70509e21e61f535100ed03ac","23.151.72.4","Mozilla/5.0 (Windows NT 10.0; Win64; x64) AppleWebKit/537.36 (KHTML, like Gecko) Chrome/130.0.0.0 Safari/537.36","WebKit","Chrome","130.0.0.0","Windows","10.0","https://app.prolific.com/","en-US,en;q=0.9","674dd6189cf2ef78c505c963","678b1bdf6d0aefd65c71dcd2","678eb986d948f5180abedc44","","null","<img  src='G_6.jpg' height='90'> <img  src='G_7.jpg' height='90'> <img   src='G_2.jpg' height='90'> <img src='G_8.jpg' height='90'> <img src='G_3.jpg' height='90'> <img src='G_1.jpg' height='90'> <img src='G_4.jpg' height='90'> <img src='G_5.jpg' height='90'>","null","Animation1",""
"","","","","","html-keyboard-response","132","488880","0.0-55.0","18","1","2025-01-20 21:02:09","8e5ef0ea70509e21e61f535100ed03ac","23.151.72.4","Mozilla/5.0 (Windows NT 10.0; Win64; x64) AppleWebKit/537.36 (KHTML, like Gecko) Chrome/130.0.0.0 Safari/537.36","WebKit","Chrome","130.0.0.0","Windows","10.0","https://app.prolific.com/","en-US,en;q=0.9","674dd6189cf2ef78c505c963","678b1bdf6d0aefd65c71dcd2","678eb986d948f5180abedc44","","null","<img id='selected'  src='G_6.jpg' height='90'> <img  src='G_7.jpg' height='90'> <img   src='G_2.jpg' height='90'> <img src='G_8.jpg' height='90'> <img src='G_3.jpg' height='90'> <img src='G_1.jpg' height='90'> <img src='G_4.jpg' height='90'> <img src='G_5.jpg' height='90'>","null","Animation1",""
"","","","","","html-keyboard-response","133","489392","0.0-56.0","18","1","2025-01-20 21:02:09","8e5ef0ea70509e21e61f535100ed03ac","23.151.72.4","Mozilla/5.0 (Windows NT 10.0; Win64; x64) AppleWebKit/537.36 (KHTML, like Gecko) Chrome/130.0.0.0 Safari/537.36","WebKit","Chrome","130.0.0.0","Windows","10.0","https://app.prolific.com/","en-US,en;q=0.9","674dd6189cf2ef78c505c963","678b1bdf6d0aefd65c71dcd2","678eb986d948f5180abedc44","","null","<img id='selected'  src='G_6.jpg' height='90'> <img id='selected'  src='G_7.jpg' height='90'> <img   src='G_2.jpg' height='90'> <img src='G_8.jpg' height='90'> <img src='G_3.jpg' height='90'> <img src='G_1.jpg' height='90'> <img src='G_4.jpg' height='90'> <img src='G_5.jpg' height='90'>","null","Animation1",""
"","","","","","html-keyboard-response","134","489905","0.0-57.0","18","1","2025-01-20 21:02:09","8e5ef0ea70509e21e61f535100ed03ac","23.151.72.4","Mozilla/5.0 (Windows NT 10.0; Win64; x64) AppleWebKit/537.36 (KHTML, like Gecko) Chrome/130.0.0.0 Safari/537.36","WebKit","Chrome","130.0.0.0","Windows","10.0","https://app.prolific.com/","en-US,en;q=0.9","674dd6189cf2ef78c505c963","678b1bdf6d0aefd65c71dcd2","678eb986d948f5180abedc44","","null","<img id='swapped'  src='G_7.jpg' height='90'> <img id='swapped'  src='G_6.jpg' height='90'> <img   src='G_2.jpg' height='90'> <img src='G_8.jpg' height='90'> <img src='G_3.jpg' height='90'> <img src='G_1.jpg' height='90'> <img src='G_4.jpg' height='90'> <img src='G_5.jpg' height='90'>","null","Animation1",""
"","","","","","html-keyboard-response","135","490218","0.0-58.0","18","1","2025-01-20 21:02:09","8e5ef0ea70509e21e61f535100ed03ac","23.151.72.4","Mozilla/5.0 (Windows NT 10.0; Win64; x64) AppleWebKit/537.36 (KHTML, like Gecko) Chrome/130.0.0.0 Safari/537.36","WebKit","Chrome","130.0.0.0","Windows","10.0","https://app.prolific.com/","en-US,en;q=0.9","674dd6189cf2ef78c505c963","678b1bdf6d0aefd65c71dcd2","678eb986d948f5180abedc44","","null","<img   src='G_7.jpg' height='90'> <img   src='G_6.jpg' height='90'> <img   src='G_2.jpg' height='90'> <img src='G_8.jpg' height='90'> <img src='G_3.jpg' height='90'> <img src='G_1.jpg' height='90'> <img src='G_4.jpg' height='90'> <img src='G_5.jpg' height='90'>","null","Animation1",""
"","","","","","html-keyboard-response","136","490729","0.0-59.0","18","1","2025-01-20 21:02:09","8e5ef0ea70509e21e61f535100ed03ac","23.151.72.4","Mozilla/5.0 (Windows NT 10.0; Win64; x64) AppleWebKit/537.36 (KHTML, like Gecko) Chrome/130.0.0.0 Safari/537.36","WebKit","Chrome","130.0.0.0","Windows","10.0","https://app.prolific.com/","en-US,en;q=0.9","674dd6189cf2ef78c505c963","678b1bdf6d0aefd65c71dcd2","678eb986d948f5180abedc44","","null","<img   src='G_7.jpg' height='90'> <img   src='G_6.jpg' height='90'> <img id='selected'   src='G_2.jpg' height='90'> <img src='G_8.jpg' height='90'> <img src='G_3.jpg' height='90'> <img src='G_1.jpg' height='90'> <img src='G_4.jpg' height='90'> <img src='G_5.jpg' height='90'>","null","Animation1",""
"","","","","","html-keyboard-response","137","491246","0.0-60.0","18","1","2025-01-20 21:02:09","8e5ef0ea70509e21e61f535100ed03ac","23.151.72.4","Mozilla/5.0 (Windows NT 10.0; Win64; x64) AppleWebKit/537.36 (KHTML, like Gecko) Chrome/130.0.0.0 Safari/537.36","WebKit","Chrome","130.0.0.0","Windows","10.0","https://app.prolific.com/","en-US,en;q=0.9","674dd6189cf2ef78c505c963","678b1bdf6d0aefd65c71dcd2","678eb986d948f5180abedc44","","null","<img   src='G_7.jpg' height='90'> <img   src='G_6.jpg' height='90'> <img id='selected'   src='G_2.jpg' height='90'> <img id='selected' src='G_8.jpg' height='90'> <img src='G_3.jpg' height='90'> <img src='G_1.jpg' height='90'> <img src='G_4.jpg' height='90'> <img src='G_5.jpg' height='90'>","null","Animation1",""
"","","","","","html-keyboard-response","138","491762","0.0-61.0","18","1","2025-01-20 21:02:09","8e5ef0ea70509e21e61f535100ed03ac","23.151.72.4","Mozilla/5.0 (Windows NT 10.0; Win64; x64) AppleWebKit/537.36 (KHTML, like Gecko) Chrome/130.0.0.0 Safari/537.36","WebKit","Chrome","130.0.0.0","Windows","10.0","https://app.prolific.com/","en-US,en;q=0.9","674dd6189cf2ef78c505c963","678b1bdf6d0aefd65c71dcd2","678eb986d948f5180abedc44","","null","<img   src='G_7.jpg' height='90'> <img   src='G_6.jpg' height='90'> <img id='swapped' src='G_8.jpg' height='90'> <img id='swapped'   src='G_2.jpg' height='90'> <img src='G_3.jpg' height='90'> <img src='G_1.jpg' height='90'> <img src='G_4.jpg' height='90'> <img src='G_5.jpg' height='90'>","null","Animation1",""
"","","","","","html-keyboard-response","139","492075","0.0-62.0","18","1","2025-01-20 21:02:09","8e5ef0ea70509e21e61f535100ed03ac","23.151.72.4","Mozilla/5.0 (Windows NT 10.0; Win64; x64) AppleWebKit/537.36 (KHTML, like Gecko) Chrome/130.0.0.0 Safari/537.36","WebKit","Chrome","130.0.0.0","Windows","10.0","https://app.prolific.com/","en-US,en;q=0.9","674dd6189cf2ef78c505c963","678b1bdf6d0aefd65c71dcd2","678eb986d948f5180abedc44","","null","<img   src='G_7.jpg' height='90'> <img   src='G_6.jpg' height='90'> <img  src='G_8.jpg' height='90'> <img    src='G_2.jpg' height='90'> <img src='G_3.jpg' height='90'> <img src='G_1.jpg' height='90'> <img src='G_4.jpg' height='90'> <img src='G_5.jpg' height='90'>","null","Animation1",""
"","","","","","html-keyboard-response","140","492608","0.0-63.0","18","1","2025-01-20 21:02:09","8e5ef0ea70509e21e61f535100ed03ac","23.151.72.4","Mozilla/5.0 (Windows NT 10.0; Win64; x64) AppleWebKit/537.36 (KHTML, like Gecko) Chrome/130.0.0.0 Safari/537.36","WebKit","Chrome","130.0.0.0","Windows","10.0","https://app.prolific.com/","en-US,en;q=0.9","674dd6189cf2ef78c505c963","678b1bdf6d0aefd65c71dcd2","678eb986d948f5180abedc44","","null","<img   src='G_7.jpg' height='90'> <img id='selected'   src='G_6.jpg' height='90'> <img  src='G_8.jpg' height='90'> <img    src='G_2.jpg' height='90'> <img src='G_3.jpg' height='90'> <img src='G_1.jpg' height='90'> <img src='G_4.jpg' height='90'> <img src='G_5.jpg' height='90'>","null","Animation1",""
"","","","","","html-keyboard-response","141","493138","0.0-64.0","18","1","2025-01-20 21:02:09","8e5ef0ea70509e21e61f535100ed03ac","23.151.72.4","Mozilla/5.0 (Windows NT 10.0; Win64; x64) AppleWebKit/537.36 (KHTML, like Gecko) Chrome/130.0.0.0 Safari/537.36","WebKit","Chrome","130.0.0.0","Windows","10.0","https://app.prolific.com/","en-US,en;q=0.9","674dd6189cf2ef78c505c963","678b1bdf6d0aefd65c71dcd2","678eb986d948f5180abedc44","","null","<img   src='G_7.jpg' height='90'> <img id='selected'   src='G_6.jpg' height='90'> <img id='selected'  src='G_8.jpg' height='90'> <img    src='G_2.jpg' height='90'> <img src='G_3.jpg' height='90'> <img src='G_1.jpg' height='90'> <img src='G_4.jpg' height='90'> <img src='G_5.jpg' height='90'>","null","Animation1",""
"","","","","","html-keyboard-response","142","493653","0.0-65.0","18","1","2025-01-20 21:02:09","8e5ef0ea70509e21e61f535100ed03ac","23.151.72.4","Mozilla/5.0 (Windows NT 10.0; Win64; x64) AppleWebKit/537.36 (KHTML, like Gecko) Chrome/130.0.0.0 Safari/537.36","WebKit","Chrome","130.0.0.0","Windows","10.0","https://app.prolific.com/","en-US,en;q=0.9","674dd6189cf2ef78c505c963","678b1bdf6d0aefd65c71dcd2","678eb986d948f5180abedc44","","null","<img   src='G_7.jpg' height='90'> <img id='swapped'  src='G_8.jpg' height='90'> <img id='swapped'   src='G_6.jpg' height='90'> <img    src='G_2.jpg' height='90'> <img src='G_3.jpg' height='90'> <img src='G_1.jpg' height='90'> <img src='G_4.jpg' height='90'> <img src='G_5.jpg' height='90'>","null","Animation1",""
"","","","","","html-keyboard-response","143","493978","0.0-66.0","18","1","2025-01-20 21:02:09","8e5ef0ea70509e21e61f535100ed03ac","23.151.72.4","Mozilla/5.0 (Windows NT 10.0; Win64; x64) AppleWebKit/537.36 (KHTML, like Gecko) Chrome/130.0.0.0 Safari/537.36","WebKit","Chrome","130.0.0.0","Windows","10.0","https://app.prolific.com/","en-US,en;q=0.9","674dd6189cf2ef78c505c963","678b1bdf6d0aefd65c71dcd2","678eb986d948f5180abedc44","","null","<img   src='G_7.jpg' height='90'> <img   src='G_8.jpg' height='90'> <img    src='G_6.jpg' height='90'> <img    src='G_2.jpg' height='90'> <img src='G_3.jpg' height='90'> <img src='G_1.jpg' height='90'> <img src='G_4.jpg' height='90'> <img src='G_5.jpg' height='90'>","null","Animation1",""
"","","","","","html-keyboard-response","144","494491","0.0-67.0","18","1","2025-01-20 21:02:09","8e5ef0ea70509e21e61f535100ed03ac","23.151.72.4","Mozilla/5.0 (Windows NT 10.0; Win64; x64) AppleWebKit/537.36 (KHTML, like Gecko) Chrome/130.0.0.0 Safari/537.36","WebKit","Chrome","130.0.0.0","Windows","10.0","https://app.prolific.com/","en-US,en;q=0.9","674dd6189cf2ef78c505c963","678b1bdf6d0aefd65c71dcd2","678eb986d948f5180abedc44","","null","<img id='selected'   src='G_7.jpg' height='90'> <img   src='G_8.jpg' height='90'> <img    src='G_6.jpg' height='90'> <img    src='G_2.jpg' height='90'> <img src='G_3.jpg' height='90'> <img src='G_1.jpg' height='90'> <img src='G_4.jpg' height='90'> <img src='G_5.jpg' height='90'>","null","Animation1",""
"","","","","","html-keyboard-response","145","495005","0.0-68.0","18","1","2025-01-20 21:02:09","8e5ef0ea70509e21e61f535100ed03ac","23.151.72.4","Mozilla/5.0 (Windows NT 10.0; Win64; x64) AppleWebKit/537.36 (KHTML, like Gecko) Chrome/130.0.0.0 Safari/537.36","WebKit","Chrome","130.0.0.0","Windows","10.0","https://app.prolific.com/","en-US,en;q=0.9","674dd6189cf2ef78c505c963","678b1bdf6d0aefd65c71dcd2","678eb986d948f5180abedc44","","null","<img id='selected'   src='G_7.jpg' height='90'> <img id='selected'   src='G_8.jpg' height='90'> <img    src='G_6.jpg' height='90'> <img    src='G_2.jpg' height='90'> <img src='G_3.jpg' height='90'> <img src='G_1.jpg' height='90'> <img src='G_4.jpg' height='90'> <img src='G_5.jpg' height='90'>","null","Animation1",""
"","","","","","html-keyboard-response","146","495533","0.0-69.0","18","1","2025-01-20 21:02:09","8e5ef0ea70509e21e61f535100ed03ac","23.151.72.4","Mozilla/5.0 (Windows NT 10.0; Win64; x64) AppleWebKit/537.36 (KHTML, like Gecko) Chrome/130.0.0.0 Safari/537.36","WebKit","Chrome","130.0.0.0","Windows","10.0","https://app.prolific.com/","en-US,en;q=0.9","674dd6189cf2ef78c505c963","678b1bdf6d0aefd65c71dcd2","678eb986d948f5180abedc44","","null","<img id='swapped'   src='G_8.jpg' height='90'> <img id='swapped'   src='G_7.jpg' height='90'> <img    src='G_6.jpg' height='90'> <img    src='G_2.jpg' height='90'> <img src='G_3.jpg' height='90'> <img src='G_1.jpg' height='90'> <img src='G_4.jpg' height='90'> <img src='G_5.jpg' height='90'>","null","Animation1",""
"","","","","","html-keyboard-response","147","495845","0.0-70.0","18","1","2025-01-20 21:02:09","8e5ef0ea70509e21e61f535100ed03ac","23.151.72.4","Mozilla/5.0 (Windows NT 10.0; Win64; x64) AppleWebKit/537.36 (KHTML, like Gecko) Chrome/130.0.0.0 Safari/537.36","WebKit","Chrome","130.0.0.0","Windows","10.0","https://app.prolific.com/","en-US,en;q=0.9","674dd6189cf2ef78c505c963","678b1bdf6d0aefd65c71dcd2","678eb986d948f5180abedc44","","null","<img    src='G_8.jpg' height='90'> <img    src='G_7.jpg' height='90'> <img    src='G_6.jpg' height='90'> <img    src='G_2.jpg' height='90'> <img src='G_3.jpg' height='90'> <img src='G_1.jpg' height='90'> <img src='G_4.jpg' height='90'> <img src='G_5.jpg' height='90'>","null","Animation1",""
"","","","","","html-keyboard-response","148","496370","0.0-71.0","18","1","2025-01-20 21:02:09","8e5ef0ea70509e21e61f535100ed03ac","23.151.72.4","Mozilla/5.0 (Windows NT 10.0; Win64; x64) AppleWebKit/537.36 (KHTML, like Gecko) Chrome/130.0.0.0 Safari/537.36","WebKit","Chrome","130.0.0.0","Windows","10.0","https://app.prolific.com/","en-US,en;q=0.9","674dd6189cf2ef78c505c963","678b1bdf6d0aefd65c71dcd2","678eb986d948f5180abedc44","","null","<img    src='G_8.jpg' height='90'> <img    src='G_7.jpg' height='90'> <img    src='G_6.jpg' height='90'> <img id='selected'    src='G_2.jpg' height='90'> <img src='G_3.jpg' height='90'> <img src='G_1.jpg' height='90'> <img src='G_4.jpg' height='90'> <img src='G_5.jpg' height='90'>","null","Animation1",""
"","","","","","html-keyboard-response","149","496899","0.0-72.0","18","1","2025-01-20 21:02:09","8e5ef0ea70509e21e61f535100ed03ac","23.151.72.4","Mozilla/5.0 (Windows NT 10.0; Win64; x64) AppleWebKit/537.36 (KHTML, like Gecko) Chrome/130.0.0.0 Safari/537.36","WebKit","Chrome","130.0.0.0","Windows","10.0","https://app.prolific.com/","en-US,en;q=0.9","674dd6189cf2ef78c505c963","678b1bdf6d0aefd65c71dcd2","678eb986d948f5180abedc44","","null","<img    src='G_8.jpg' height='90'> <img    src='G_7.jpg' height='90'> <img    src='G_6.jpg' height='90'> <img id='selected'    src='G_2.jpg' height='90'> <img id='selected' src='G_3.jpg' height='90'> <img src='G_1.jpg' height='90'> <img src='G_4.jpg' height='90'> <img src='G_5.jpg' height='90'>","null","Animation1",""
"","","","","","html-keyboard-response","150","497409","0.0-73.0","18","1","2025-01-20 21:02:09","8e5ef0ea70509e21e61f535100ed03ac","23.151.72.4","Mozilla/5.0 (Windows NT 10.0; Win64; x64) AppleWebKit/537.36 (KHTML, like Gecko) Chrome/130.0.0.0 Safari/537.36","WebKit","Chrome","130.0.0.0","Windows","10.0","https://app.prolific.com/","en-US,en;q=0.9","674dd6189cf2ef78c505c963","678b1bdf6d0aefd65c71dcd2","678eb986d948f5180abedc44","","null","<img    src='G_8.jpg' height='90'> <img    src='G_7.jpg' height='90'> <img    src='G_6.jpg' height='90'> <img id='swapped' src='G_3.jpg' height='90'> <img id='swapped'    src='G_2.jpg' height='90'> <img src='G_1.jpg' height='90'> <img src='G_4.jpg' height='90'> <img src='G_5.jpg' height='90'>","null","Animation1",""
"","","","","","html-keyboard-response","151","497737","0.0-74.0","18","1","2025-01-20 21:02:09","8e5ef0ea70509e21e61f535100ed03ac","23.151.72.4","Mozilla/5.0 (Windows NT 10.0; Win64; x64) AppleWebKit/537.36 (KHTML, like Gecko) Chrome/130.0.0.0 Safari/537.36","WebKit","Chrome","130.0.0.0","Windows","10.0","https://app.prolific.com/","en-US,en;q=0.9","674dd6189cf2ef78c505c963","678b1bdf6d0aefd65c71dcd2","678eb986d948f5180abedc44","","null","<img    src='G_8.jpg' height='90'> <img    src='G_7.jpg' height='90'> <img    src='G_6.jpg' height='90'> <img  src='G_3.jpg' height='90'> <img     src='G_2.jpg' height='90'> <img src='G_1.jpg' height='90'> <img src='G_4.jpg' height='90'> <img src='G_5.jpg' height='90'>","null","Animation1",""
"","","","","","html-keyboard-response","152","498252","0.0-75.0","18","1","2025-01-20 21:02:09","8e5ef0ea70509e21e61f535100ed03ac","23.151.72.4","Mozilla/5.0 (Windows NT 10.0; Win64; x64) AppleWebKit/537.36 (KHTML, like Gecko) Chrome/130.0.0.0 Safari/537.36","WebKit","Chrome","130.0.0.0","Windows","10.0","https://app.prolific.com/","en-US,en;q=0.9","674dd6189cf2ef78c505c963","678b1bdf6d0aefd65c71dcd2","678eb986d948f5180abedc44","","null","<img    src='G_8.jpg' height='90'> <img    src='G_7.jpg' height='90'> <img id='selected'    src='G_6.jpg' height='90'> <img  src='G_3.jpg' height='90'> <img     src='G_2.jpg' height='90'> <img src='G_1.jpg' height='90'> <img src='G_4.jpg' height='90'> <img src='G_5.jpg' height='90'>","null","Animation1",""
"","","","","","html-keyboard-response","153","498766","0.0-76.0","18","1","2025-01-20 21:02:09","8e5ef0ea70509e21e61f535100ed03ac","23.151.72.4","Mozilla/5.0 (Windows NT 10.0; Win64; x64) AppleWebKit/537.36 (KHTML, like Gecko) Chrome/130.0.0.0 Safari/537.36","WebKit","Chrome","130.0.0.0","Windows","10.0","https://app.prolific.com/","en-US,en;q=0.9","674dd6189cf2ef78c505c963","678b1bdf6d0aefd65c71dcd2","678eb986d948f5180abedc44","","null","<img    src='G_8.jpg' height='90'> <img    src='G_7.jpg' height='90'> <img id='selected'    src='G_6.jpg' height='90'> <img id='selected'  src='G_3.jpg' height='90'> <img     src='G_2.jpg' height='90'> <img src='G_1.jpg' height='90'> <img src='G_4.jpg' height='90'> <img src='G_5.jpg' height='90'>","null","Animation1",""
"","","","","","html-keyboard-response","154","499284","0.0-77.0","18","1","2025-01-20 21:02:09","8e5ef0ea70509e21e61f535100ed03ac","23.151.72.4","Mozilla/5.0 (Windows NT 10.0; Win64; x64) AppleWebKit/537.36 (KHTML, like Gecko) Chrome/130.0.0.0 Safari/537.36","WebKit","Chrome","130.0.0.0","Windows","10.0","https://app.prolific.com/","en-US,en;q=0.9","674dd6189cf2ef78c505c963","678b1bdf6d0aefd65c71dcd2","678eb986d948f5180abedc44","","null","<img    src='G_8.jpg' height='90'> <img    src='G_7.jpg' height='90'> <img id='swapped'  src='G_3.jpg' height='90'> <img id='swapped'    src='G_6.jpg' height='90'> <img     src='G_2.jpg' height='90'> <img src='G_1.jpg' height='90'> <img src='G_4.jpg' height='90'> <img src='G_5.jpg' height='90'>","null","Animation1",""
"","","","","","html-keyboard-response","155","499610","0.0-78.0","18","1","2025-01-20 21:02:09","8e5ef0ea70509e21e61f535100ed03ac","23.151.72.4","Mozilla/5.0 (Windows NT 10.0; Win64; x64) AppleWebKit/537.36 (KHTML, like Gecko) Chrome/130.0.0.0 Safari/537.36","WebKit","Chrome","130.0.0.0","Windows","10.0","https://app.prolific.com/","en-US,en;q=0.9","674dd6189cf2ef78c505c963","678b1bdf6d0aefd65c71dcd2","678eb986d948f5180abedc44","","null","<img    src='G_8.jpg' height='90'> <img    src='G_7.jpg' height='90'> <img   src='G_3.jpg' height='90'> <img     src='G_6.jpg' height='90'> <img     src='G_2.jpg' height='90'> <img src='G_1.jpg' height='90'> <img src='G_4.jpg' height='90'> <img src='G_5.jpg' height='90'>","null","Animation1",""
"","","","","","html-keyboard-response","156","500126","0.0-79.0","18","1","2025-01-20 21:02:09","8e5ef0ea70509e21e61f535100ed03ac","23.151.72.4","Mozilla/5.0 (Windows NT 10.0; Win64; x64) AppleWebKit/537.36 (KHTML, like Gecko) Chrome/130.0.0.0 Safari/537.36","WebKit","Chrome","130.0.0.0","Windows","10.0","https://app.prolific.com/","en-US,en;q=0.9","674dd6189cf2ef78c505c963","678b1bdf6d0aefd65c71dcd2","678eb986d948f5180abedc44","","null","<img    src='G_8.jpg' height='90'> <img id='selected'    src='G_7.jpg' height='90'> <img   src='G_3.jpg' height='90'> <img     src='G_6.jpg' height='90'> <img     src='G_2.jpg' height='90'> <img src='G_1.jpg' height='90'> <img src='G_4.jpg' height='90'> <img src='G_5.jpg' height='90'>","null","Animation1",""
"","","","","","html-keyboard-response","157","500638","0.0-80.0","18","1","2025-01-20 21:02:09","8e5ef0ea70509e21e61f535100ed03ac","23.151.72.4","Mozilla/5.0 (Windows NT 10.0; Win64; x64) AppleWebKit/537.36 (KHTML, like Gecko) Chrome/130.0.0.0 Safari/537.36","WebKit","Chrome","130.0.0.0","Windows","10.0","https://app.prolific.com/","en-US,en;q=0.9","674dd6189cf2ef78c505c963","678b1bdf6d0aefd65c71dcd2","678eb986d948f5180abedc44","","null","<img    src='G_8.jpg' height='90'> <img id='selected'    src='G_7.jpg' height='90'> <img id='selected'   src='G_3.jpg' height='90'> <img     src='G_6.jpg' height='90'> <img     src='G_2.jpg' height='90'> <img src='G_1.jpg' height='90'> <img src='G_4.jpg' height='90'> <img src='G_5.jpg' height='90'>","null","Animation1",""
"","","","","","html-keyboard-response","158","501153","0.0-81.0","18","1","2025-01-20 21:02:09","8e5ef0ea70509e21e61f535100ed03ac","23.151.72.4","Mozilla/5.0 (Windows NT 10.0; Win64; x64) AppleWebKit/537.36 (KHTML, like Gecko) Chrome/130.0.0.0 Safari/537.36","WebKit","Chrome","130.0.0.0","Windows","10.0","https://app.prolific.com/","en-US,en;q=0.9","674dd6189cf2ef78c505c963","678b1bdf6d0aefd65c71dcd2","678eb986d948f5180abedc44","","null","<img    src='G_8.jpg' height='90'> <img id='swapped'   src='G_3.jpg' height='90'> <img id='swapped'    src='G_7.jpg' height='90'> <img     src='G_6.jpg' height='90'> <img     src='G_2.jpg' height='90'> <img src='G_1.jpg' height='90'> <img src='G_4.jpg' height='90'> <img src='G_5.jpg' height='90'>","null","Animation1",""
"","","","","","html-keyboard-response","159","501464","0.0-82.0","18","1","2025-01-20 21:02:09","8e5ef0ea70509e21e61f535100ed03ac","23.151.72.4","Mozilla/5.0 (Windows NT 10.0; Win64; x64) AppleWebKit/537.36 (KHTML, like Gecko) Chrome/130.0.0.0 Safari/537.36","WebKit","Chrome","130.0.0.0","Windows","10.0","https://app.prolific.com/","en-US,en;q=0.9","674dd6189cf2ef78c505c963","678b1bdf6d0aefd65c71dcd2","678eb986d948f5180abedc44","","null","<img    src='G_8.jpg' height='90'> <img    src='G_3.jpg' height='90'> <img     src='G_7.jpg' height='90'> <img     src='G_6.jpg' height='90'> <img     src='G_2.jpg' height='90'> <img src='G_1.jpg' height='90'> <img src='G_4.jpg' height='90'> <img src='G_5.jpg' height='90'>","null","Animation1",""
"","","","","","html-keyboard-response","160","501978","0.0-83.0","18","1","2025-01-20 21:02:09","8e5ef0ea70509e21e61f535100ed03ac","23.151.72.4","Mozilla/5.0 (Windows NT 10.0; Win64; x64) AppleWebKit/537.36 (KHTML, like Gecko) Chrome/130.0.0.0 Safari/537.36","WebKit","Chrome","130.0.0.0","Windows","10.0","https://app.prolific.com/","en-US,en;q=0.9","674dd6189cf2ef78c505c963","678b1bdf6d0aefd65c71dcd2","678eb986d948f5180abedc44","","null","<img id='selected'    src='G_8.jpg' height='90'> <img    src='G_3.jpg' height='90'> <img     src='G_7.jpg' height='90'> <img     src='G_6.jpg' height='90'> <img     src='G_2.jpg' height='90'> <img src='G_1.jpg' height='90'> <img src='G_4.jpg' height='90'> <img src='G_5.jpg' height='90'>","null","Animation1",""
"","","","","","html-keyboard-response","161","502503","0.0-84.0","18","1","2025-01-20 21:02:09","8e5ef0ea70509e21e61f535100ed03ac","23.151.72.4","Mozilla/5.0 (Windows NT 10.0; Win64; x64) AppleWebKit/537.36 (KHTML, like Gecko) Chrome/130.0.0.0 Safari/537.36","WebKit","Chrome","130.0.0.0","Windows","10.0","https://app.prolific.com/","en-US,en;q=0.9","674dd6189cf2ef78c505c963","678b1bdf6d0aefd65c71dcd2","678eb986d948f5180abedc44","","null","<img id='selected'    src='G_8.jpg' height='90'> <img id='selected'    src='G_3.jpg' height='90'> <img     src='G_7.jpg' height='90'> <img     src='G_6.jpg' height='90'> <img     src='G_2.jpg' height='90'> <img src='G_1.jpg' height='90'> <img src='G_4.jpg' height='90'> <img src='G_5.jpg' height='90'>","null","Animation1",""
"","","","","","html-keyboard-response","162","503031","0.0-85.0","18","1","2025-01-20 21:02:09","8e5ef0ea70509e21e61f535100ed03ac","23.151.72.4","Mozilla/5.0 (Windows NT 10.0; Win64; x64) AppleWebKit/537.36 (KHTML, like Gecko) Chrome/130.0.0.0 Safari/537.36","WebKit","Chrome","130.0.0.0","Windows","10.0","https://app.prolific.com/","en-US,en;q=0.9","674dd6189cf2ef78c505c963","678b1bdf6d0aefd65c71dcd2","678eb986d948f5180abedc44","","null","<img id='selected'    src='G_8.jpg' height='90'> <img id='selected'    src='G_3.jpg' height='90'> <img     src='G_7.jpg' height='90'> <img     src='G_6.jpg' height='90'> <img     src='G_2.jpg' height='90'> <img src='G_1.jpg' height='90'> <img src='G_4.jpg' height='90'> <img src='G_5.jpg' height='90'>","null","Animation1",""
"","","","","","html-keyboard-response","163","503358","0.0-86.0","18","1","2025-01-20 21:02:09","8e5ef0ea70509e21e61f535100ed03ac","23.151.72.4","Mozilla/5.0 (Windows NT 10.0; Win64; x64) AppleWebKit/537.36 (KHTML, like Gecko) Chrome/130.0.0.0 Safari/537.36","WebKit","Chrome","130.0.0.0","Windows","10.0","https://app.prolific.com/","en-US,en;q=0.9","674dd6189cf2ef78c505c963","678b1bdf6d0aefd65c71dcd2","678eb986d948f5180abedc44","","null","<img     src='G_8.jpg' height='90'> <img     src='G_3.jpg' height='90'> <img     src='G_7.jpg' height='90'> <img     src='G_6.jpg' height='90'> <img     src='G_2.jpg' height='90'> <img src='G_1.jpg' height='90'> <img src='G_4.jpg' height='90'> <img src='G_5.jpg' height='90'>","null","Animation1",""
"","","","","","html-keyboard-response","164","503872","0.0-87.0","18","1","2025-01-20 21:02:09","8e5ef0ea70509e21e61f535100ed03ac","23.151.72.4","Mozilla/5.0 (Windows NT 10.0; Win64; x64) AppleWebKit/537.36 (KHTML, like Gecko) Chrome/130.0.0.0 Safari/537.36","WebKit","Chrome","130.0.0.0","Windows","10.0","https://app.prolific.com/","en-US,en;q=0.9","674dd6189cf2ef78c505c963","678b1bdf6d0aefd65c71dcd2","678eb986d948f5180abedc44","","null","<img     src='G_8.jpg' height='90'> <img     src='G_3.jpg' height='90'> <img     src='G_7.jpg' height='90'> <img     src='G_6.jpg' height='90'> <img id='selected'     src='G_2.jpg' height='90'> <img src='G_1.jpg' height='90'> <img src='G_4.jpg' height='90'> <img src='G_5.jpg' height='90'>","null","Animation1",""
"","","","","","html-keyboard-response","165","504400","0.0-88.0","18","1","2025-01-20 21:02:09","8e5ef0ea70509e21e61f535100ed03ac","23.151.72.4","Mozilla/5.0 (Windows NT 10.0; Win64; x64) AppleWebKit/537.36 (KHTML, like Gecko) Chrome/130.0.0.0 Safari/537.36","WebKit","Chrome","130.0.0.0","Windows","10.0","https://app.prolific.com/","en-US,en;q=0.9","674dd6189cf2ef78c505c963","678b1bdf6d0aefd65c71dcd2","678eb986d948f5180abedc44","","null","<img     src='G_8.jpg' height='90'> <img     src='G_3.jpg' height='90'> <img     src='G_7.jpg' height='90'> <img     src='G_6.jpg' height='90'> <img id='selected'     src='G_2.jpg' height='90'> <img id='selected' src='G_1.jpg' height='90'> <img src='G_4.jpg' height='90'> <img src='G_5.jpg' height='90'>","null","Animation1",""
"","","","","","html-keyboard-response","166","504913","0.0-89.0","18","1","2025-01-20 21:02:09","8e5ef0ea70509e21e61f535100ed03ac","23.151.72.4","Mozilla/5.0 (Windows NT 10.0; Win64; x64) AppleWebKit/537.36 (KHTML, like Gecko) Chrome/130.0.0.0 Safari/537.36","WebKit","Chrome","130.0.0.0","Windows","10.0","https://app.prolific.com/","en-US,en;q=0.9","674dd6189cf2ef78c505c963","678b1bdf6d0aefd65c71dcd2","678eb986d948f5180abedc44","","null","<img     src='G_8.jpg' height='90'> <img     src='G_3.jpg' height='90'> <img     src='G_7.jpg' height='90'> <img     src='G_6.jpg' height='90'> <img id='swapped' src='G_1.jpg' height='90'> <img id='swapped'     src='G_2.jpg' height='90'> <img src='G_4.jpg' height='90'> <img src='G_5.jpg' height='90'>","null","Animation1",""
